timestamp,time,ax,ay,az,mag,time2
16:38:00.143,68370,-0.87,-0.52,0.11,10.25,6787
16:38:00.147,68360,-0.88,-0.52,0.11,10.25,6786
16:38:00.157,68380,-0.87,-0.51,0.11,10.16,6788
16:38:00.165,68390,-0.87,-0.51,0.11,10.19,6789
16:38:00.176,68400,-0.87,-0.52,0.11,10.19,6790
16:38:00.186,68410,-0.88,-0.52,0.10,10.23,6791
16:38:00.194,68420,-0.87,-0.52,0.10,10.21,6792
16:38:00.205,68430,-0.87,-0.53,0.11,10.23,6793
16:38:00.215,68440,-0.87,-0.51,0.11,10.17,6794
16:38:00.225,68450,-0.87,-0.52,0.11,10.23,6795
16:38:00.234,68460,-0.88,-0.52,0.10,10.25,6796
16:38:00.247,68470,-0.88,-0.52,0.11,10.25,6797
16:38:00.255,68480,-0.87,-0.52,0.10,10.24,6798
16:38:00.265,68490,-0.87,-0.52,0.11,10.21,6799
16:38:00.274,68500,-0.86,-0.53,0.10,10.16,6800
16:38:00.291,68510,-0.88,-0.52,0.10,10.27,6801
16:38:00.295,68520,-0.87,-0.52,0.11,10.19,6802
16:38:00.332,68530,-0.87,-0.52,0.10,10.20,6803
16:38:00.333,68540,-0.87,-0.53,0.10,10.26,6804
16:38:00.335,68550,-0.87,-0.52,0.11,10.24,6805
16:38:00.335,68560,-0.87,-0.52,0.11,10.22,6806
16:38:00.373,68570,-0.87,-0.52,0.10,10.23,6807
16:38:00.374,68580,-0.88,-0.52,0.11,10.25,6808
16:38:00.375,68590,-0.87,-0.52,0.10,10.22,6809
16:38:00.376,68600,-0.87,-0.53,0.11,10.25,6810
16:38:00.477,68610,-0.87,-0.52,0.11,10.22,6811
16:38:00.477,68620,-0.87,-0.52,0.12,10.24,6812
16:38:00.480,68630,-0.86,-0.52,0.12,10.16,6813
16:38:00.481,68640,-0.86,-0.52,0.12,10.12,6814
16:38:00.482,68650,-0.87,-0.53,0.11,10.22,6815
16:38:00.483,68660,-0.86,-0.52,0.12,10.15,6816
16:38:00.515,68670,-0.87,-0.53,0.12,10.21,6817
16:38:00.518,68680,-0.87,-0.52,0.12,10.19,6818
16:38:00.518,68690,-0.87,-0.52,0.12,10.19,6819
16:38:00.518,68700,-0.87,-0.52,0.11,10.21,6820
16:38:00.518,68710,-0.87,-0.52,0.11,10.22,6821
16:38:00.519,68720,-0.87,-0.52,0.11,10.24,6822
16:38:00.522,68730,-0.88,-0.53,0.10,10.28,6823
16:38:00.523,68740,-0.89,-0.54,0.09,10.42,6824
16:38:00.526,68750,-0.86,-0.55,0.08,10.24,6825
16:38:00.535,68760,-0.85,-0.52,0.09,9.99,6826
16:38:00.543,68770,-0.87,-0.50,0.09,10.10,6827
16:38:00.562,68780,-0.88,-0.51,0.09,10.22,6828
16:38:00.563,68790,-0.88,-0.52,0.10,10.21,6829
16:38:00.577,68800,-0.85,-0.52,0.08,10.02,6830
16:38:00.586,68810,-0.84,-0.51,0.06,9.87,6831
16:38:00.598,68820,-0.87,-0.51,0.07,10.11,6832
16:38:00.611,68830,-0.88,-0.53,0.09,10.36,6833
16:38:00.615,68840,-0.89,-0.53,0.08,10.40,6834
16:38:00.623,68850,-0.86,-0.54,0.09,10.21,6835
16:38:00.640,68860,-0.86,-0.56,0.10,10.31,6836
16:38:00.645,68870,-0.86,-0.55,0.12,10.28,6837
16:38:00.657,68880,-0.86,-0.55,0.13,10.32,6838
16:38:00.691,68890,-0.85,-0.55,0.13,10.20,6839
16:38:00.694,68900,-0.86,-0.53,0.11,10.15,6840
16:38:00.694,68910,-0.87,-0.53,0.11,10.20,6841
16:38:00.694,68920,-0.89,-0.51,0.10,10.29,6842
16:38:00.703,68930,-0.89,-0.49,0.08,10.19,6843
16:38:00.718,68940,-0.90,-0.49,0.07,10.33,6844
16:38:00.725,68950,-0.92,-0.50,0.04,10.42,6845
16:38:00.740,68960,-0.90,-0.49,0.01,10.29,6846
16:38:00.745,68970,-0.91,-0.48,-0.02,10.24,6847
16:38:00.756,68980,-0.93,-0.46,-0.06,10.38,6848
16:38:00.767,68990,-0.94,-0.44,-0.10,10.42,6849
16:38:00.775,69000,-0.97,-0.42,-0.14,10.61,6850
16:38:00.785,69010,-1.00,-0.38,-0.17,10.84,6851
16:38:00.797,69020,-1.02,-0.36,-0.22,11.05,6852
16:38:00.806,69030,-1.04,-0.36,-0.26,11.36,6853
16:38:00.822,69040,-1.06,-0.35,-0.27,11.48,6854
16:38:00.823,69050,-1.04,-0.36,-0.28,11.31,6855
16:38:00.837,69060,-1.03,-0.37,-0.24,11.19,6856
16:38:00.848,69070,-1.03,-0.40,-0.16,11.16,6857
16:38:00.855,69080,-1.02,-0.45,-0.05,11.13,6858
16:38:00.865,69090,-0.98,-0.50,0.05,11.00,6859
16:38:00.876,69100,-0.96,-0.53,0.16,11.12,6860
16:38:00.893,69110,-0.95,-0.56,0.24,11.28,6861
16:38:00.895,69120,-0.99,-0.61,0.25,11.86,6862
16:38:00.907,69130,-1.04,-0.69,0.21,12.63,6863
16:38:00.914,69140,-1.08,-0.71,0.22,13.12,6864
16:38:00.925,69150,-1.06,-0.68,0.29,12.89,6865
16:38:00.939,69160,-0.96,-0.67,0.30,12.07,6866
16:38:00.945,69170,-0.87,-0.66,0.29,11.25,6867
16:38:00.996,69180,-0.80,-0.64,0.36,10.84,6868
16:38:00.998,69190,-0.75,-0.64,0.43,10.75,6869
16:38:01.000,69200,-0.75,-0.60,0.51,10.88,6870
16:38:01.000,69210,-0.75,-0.58,0.56,11.03,6871
16:38:01.001,69220,-0.79,-0.54,0.51,10.80,6872
16:38:01.038,69230,-0.76,-0.51,0.41,10.02,6873
16:38:01.041,69240,-0.72,-0.51,0.36,9.57,6874
16:38:01.042,69250,-0.75,-0.56,0.33,9.91,6875
16:38:01.043,69260,-0.79,-0.57,0.29,10.21,6876
16:38:01.080,69270,-0.81,-0.54,0.26,10.07,6877
16:38:01.080,69280,-0.83,-0.51,0.25,10.00,6878
16:38:01.085,69290,-0.84,-0.45,0.25,9.85,6879
16:38:01.085,69300,-0.85,-0.42,0.23,9.73,6880
16:38:01.085,69310,-0.89,-0.40,0.22,10.01,6881
16:38:01.122,69320,-0.92,-0.39,0.22,10.27,6882
16:38:01.122,69330,-0.93,-0.40,0.21,10.37,6883
16:38:01.124,69340,-0.92,-0.41,0.19,10.29,6884
16:38:01.125,69350,-0.91,-0.44,0.19,10.31,6885
16:38:01.162,69360,-0.92,-0.44,0.21,10.41,6886
16:38:01.162,69370,-0.92,-0.44,0.18,10.35,6887
16:38:01.164,69380,-0.89,-0.42,0.18,10.04,6888
16:38:01.165,69390,-0.88,-0.40,0.16,9.75,6889
16:38:01.203,69400,-0.87,-0.39,0.12,9.61,6890
16:38:01.203,69410,-0.88,-0.38,0.08,9.62,6891
16:38:01.205,69420,-0.88,-0.41,0.08,9.76,6892
16:38:01.206,69430,-0.90,-0.41,0.06,9.91,6893
16:38:01.218,69440,-0.87,-0.42,0.02,9.70,6894
16:38:01.226,69450,-0.87,-0.39,0.00,9.56,6895
16:38:01.234,69460,-0.89,-0.36,-0.04,9.65,6896
16:38:01.246,69470,-0.90,-0.34,-0.06,9.60,6897
16:38:01.255,69480,-0.92,-0.34,-0.04,9.76,6898
16:38:01.269,69490,-0.90,-0.36,-0.04,9.67,6899
16:38:01.276,69500,-0.90,-0.35,-0.09,9.69,6900
16:38:01.293,69510,-0.92,-0.30,-0.16,9.83,6901
16:38:01.293,69520,-0.92,-0.23,-0.20,9.70,6902
16:38:01.312,69530,-0.88,-0.20,-0.15,9.15,6903
16:38:01.315,69540,-0.96,-0.20,-0.19,10.01,6904
16:38:01.329,69550,-0.92,-0.22,-0.22,9.75,6905
16:38:01.335,69560,-0.92,-0.20,-0.22,9.70,6906
16:38:01.344,69570,-0.90,-0.22,-0.24,9.54,6907
16:38:01.361,69580,-0.92,-0.20,-0.26,9.79,6908
16:38:01.370,69590,-0.88,-0.20,-0.26,9.39,6909
16:38:01.375,69600,-0.89,-0.19,-0.28,9.50,6910
16:38:01.385,69610,-0.87,-0.20,-0.26,9.32,6911
16:38:01.396,69620,-0.84,-0.25,-0.26,9.18,6912
16:38:01.405,69630,-0.83,-0.30,-0.26,9.18,6913
16:38:01.420,69640,-0.80,-0.34,-0.20,8.95,6914
16:38:01.425,69650,-0.76,-0.37,-0.16,8.56,6915
16:38:01.442,69660,-0.73,-0.38,-0.15,8.39,6916
16:38:01.444,69670,-0.70,-0.42,-0.11,8.25,6917
16:38:01.455,69680,-1.02,-0.57,-0.19,11.80,6918
16:38:01.465,69690,-1.16,-0.68,-0.18,13.61,6919
16:38:01.476,69700,-1.32,-0.65,-0.18,14.79,6920
16:38:01.486,69710,-1.44,-0.35,-0.19,14.96,6921
16:38:01.495,69720,-1.45,-0.04,-0.23,14.69,6922
16:38:01.504,69730,-1.31,0.06,-0.31,13.50,6923
16:38:01.514,69740,-1.31,-0.09,-0.31,13.50,6924
16:38:01.528,69750,-1.32,-0.24,-0.13,13.45,6925
16:38:01.536,69760,-1.23,-0.31,-0.03,12.66,6926
16:38:01.546,69770,-1.06,-0.35,0.07,11.21,6927
16:38:01.556,69780,-0.98,-0.38,0.17,10.62,6928
16:38:01.566,69790,-0.89,-0.46,0.22,10.24,6929
16:38:01.577,69800,-0.73,-0.55,0.28,9.55,6930
16:38:01.589,69810,-0.66,-0.61,0.24,9.32,6931
16:38:01.601,69820,-0.67,-0.65,0.11,9.38,6932
16:38:01.610,69830,-0.66,-0.85,0.13,10.80,6933
16:38:01.618,69840,-0.88,-0.76,0.21,11.79,6934
16:38:01.629,69850,-0.88,-0.59,0.28,10.95,6935
16:38:01.635,69860,-0.86,-0.49,0.16,10.05,6936
16:38:01.644,69870,-0.82,-0.55,0.10,9.95,6937
16:38:01.653,69880,-0.76,-0.67,0.03,10.18,6938
16:38:01.668,69890,-0.70,-0.76,-0.04,10.38,6939
16:38:01.675,69900,-0.64,-0.81,-0.04,10.31,6940
16:38:01.686,69910,-0.66,-0.79,0.02,10.31,6941
16:38:01.758,69920,-0.73,-0.72,0.12,10.28,6942
16:38:01.759,69930,-0.82,-0.61,0.16,10.31,6943
16:38:01.761,69940,-0.90,-0.49,0.17,10.43,6944
16:38:01.763,69950,-0.97,-0.43,0.19,10.79,6945
16:38:01.763,69960,-0.97,-0.43,0.18,10.80,6946
16:38:01.764,69970,-0.92,-0.47,0.14,10.42,6947
16:38:01.793,69980,-0.86,-0.54,0.13,10.18,6948
16:38:01.793,69990,-0.82,-0.59,0.14,10.16,6949
16:38:01.797,70000,-0.77,-0.62,0.15,10.02,6950
16:38:01.797,70010,-0.74,-0.66,0.15,10.04,6951
16:38:01.797,70020,-0.74,-0.69,0.14,10.21,6952
16:38:01.834,70030,-0.74,-0.73,0.14,10.45,6953
16:38:01.837,70040,-0.71,-0.72,0.17,10.31,6954
16:38:01.837,70050,-0.73,-0.69,0.17,10.24,6955
16:38:01.839,70060,-0.78,-0.64,0.17,10.24,6956
16:38:01.875,70070,-0.81,-0.60,0.20,10.26,6957
16:38:01.878,70080,-0.85,-0.55,0.20,10.33,6958
16:38:01.878,70090,-0.82,-0.55,0.19,10.07,6959
16:38:01.878,70100,-0.78,-0.58,0.18,9.88,6960
16:38:01.917,70110,-0.78,-0.59,0.20,10.05,6961
16:38:01.919,70120,-0.79,-0.61,0.20,10.17,6962
16:38:01.919,70130,-0.79,-0.60,0.17,10.05,6963
16:38:01.919,70140,-0.82,-0.55,0.16,10.03,6964
16:38:01.980,70150,-0.86,-0.53,0.16,10.23,6965
16:38:01.981,70160,-0.74,-0.60,0.23,9.77,6966
16:38:01.982,70170,-0.83,-0.61,0.23,10.57,6967
16:38:01.983,70180,-0.79,-0.61,0.19,10.13,6968
16:38:01.985,70190,-0.78,-0.59,0.18,9.93,6969
16:38:01.989,70200,-0.79,-0.57,0.21,9.97,6970
16:38:01.989,70210,-0.81,-0.57,0.20,10.13,6971
16:38:01.995,70220,-0.82,-0.56,0.19,10.11,6972
16:38:02.004,70230,-0.83,-0.55,0.15,10.04,6973
16:38:02.018,70240,-0.81,-0.56,0.12,9.94,6974
16:38:02.028,70250,-0.78,-0.60,0.09,9.87,6975
16:38:02.042,70260,-0.79,-0.63,0.07,10.10,6976
16:38:02.045,70270,-0.84,-0.59,0.08,10.28,6977
16:38:02.055,70280,-0.86,-0.55,0.07,10.25,6978
16:38:02.066,70290,-0.83,-0.54,0.04,9.94,6979
16:38:02.079,70300,-0.78,-0.55,-0.02,9.53,6980
16:38:02.083,70310,-0.76,-0.60,-0.07,9.70,6981
16:38:02.093,70320,-0.81,-0.62,-0.06,10.26,6982
16:38:02.108,70330,-0.83,-0.63,-0.02,10.43,6983
16:38:02.115,70340,-0.78,-0.70,0.02,10.47,6984
16:38:02.127,70350,-0.72,-0.67,0.06,9.92,6985
16:38:02.136,70360,-0.72,-0.64,0.11,9.68,6986
16:38:02.152,70370,-0.75,-0.62,0.12,9.83,6987
16:38:02.155,70380,-0.80,-0.57,0.16,9.99,6988
16:38:02.172,70390,-0.83,-0.60,0.19,10.44,6989
16:38:02.173,70400,-0.83,-0.62,0.16,10.47,6990
16:38:02.190,70410,-0.87,-0.62,0.14,10.79,6991
16:38:02.194,70420,-0.94,-0.56,0.13,10.98,6992
16:38:02.206,70430,-1.03,-0.48,0.10,11.41,6993
16:38:02.218,70440,-1.10,-0.53,0.05,12.21,6994
16:38:02.227,70450,-1.16,-0.76,-0.01,13.85,6995
16:38:02.239,70460,-1.31,-0.75,-0.03,15.10,6996
16:38:02.263,70470,-1.42,-0.50,-0.10,15.08,6997
16:38:02.265,70480,-1.38,-0.35,-0.16,14.37,6998
16:38:02.265,70490,-1.41,-0.28,-0.10,14.41,6999
16:38:02.280,70500,-1.55,-0.22,-0.03,15.70,7000
16:38:02.285,70510,-1.73,-0.19,0.04,17.39,7001
16:38:02.300,70520,-1.69,-0.32,-0.13,17.28,7002
16:38:02.305,70530,-1.43,-0.59,-0.10,15.52,7003
16:38:02.323,70540,-1.09,-0.81,-0.08,13.55,7004
16:38:02.323,70550,-0.81,-1.12,0.06,13.81,7005
16:38:02.342,70560,-0.66,-1.30,0.36,15.05,7006
16:38:02.346,70570,-0.66,-1.37,0.59,16.31,7007
16:38:02.363,70580,-0.57,-1.30,0.75,16.07,7008
16:38:02.366,70590,-0.52,-1.19,0.80,15.26,7009
16:38:02.377,70600,-0.54,-1.02,0.80,14.07,7010
16:38:02.387,70610,-0.38,-0.84,0.92,13.03,7011
16:38:02.398,70620,-0.21,-0.64,1.10,12.84,7012
16:38:02.404,70630,-0.18,-0.52,1.07,12.00,7013
16:38:02.445,70640,-0.33,-0.48,0.86,10.36,7014
16:38:02.448,70650,-0.46,-0.42,0.68,9.23,7015
16:38:02.448,70660,-0.52,-0.54,0.61,9.65,7016
16:38:02.450,70670,-0.50,-0.71,0.59,10.50,7017
16:38:02.487,70680,-0.38,-0.83,0.58,10.82,7018
16:38:02.487,70690,-0.20,-0.88,0.60,10.79,7019
16:38:02.490,70700,-0.03,-0.87,0.57,10.41,7020
16:38:02.490,70710,0.07,-0.81,0.57,9.88,7021
16:38:02.527,70720,0.02,-0.70,0.55,8.89,7022
16:38:02.529,70730,-0.15,-0.53,0.60,8.13,7023
16:38:02.529,70740,-0.21,-0.47,0.65,8.32,7024
16:38:02.531,70750,-0.22,-0.45,0.70,8.61,7025
16:38:02.566,70760,-0.19,-0.44,0.70,8.46,7026
16:38:02.566,70770,-0.11,-0.50,0.64,8.21,7027
16:38:02.569,70780,-0.03,-0.56,0.64,8.48,7028
16:38:02.571,70790,-0.03,-0.53,0.58,7.87,7029
16:38:02.607,70800,-0.10,-0.50,0.62,8.02,7030
16:38:02.607,70810,-0.21,-0.47,0.67,8.43,7031
16:38:02.609,70820,-0.28,-0.41,0.68,8.44,7032
16:38:02.611,70830,-0.30,-0.38,0.65,8.11,7033
16:38:02.644,70840,-0.27,-0.38,0.62,7.81,7034
16:38:02.646,70850,-0.26,-0.39,0.62,7.80,7035
16:38:02.646,70860,-0.32,-0.37,0.58,7.60,7036
16:38:02.648,70870,-0.49,-0.47,0.58,8.97,7037
16:38:02.655,70880,-0.55,-0.60,0.60,10.13,7038
16:38:02.666,70890,-0.56,-0.65,0.58,10.37,7039
16:38:02.675,70900,-0.53,-0.63,0.47,9.53,7040
16:38:02.686,70910,-0.54,-0.61,0.44,9.19,7041
16:38:02.696,70920,-0.65,-0.52,0.36,9.12,7042
16:38:02.704,70930,-0.78,-0.50,0.29,9.65,7043
16:38:02.721,70940,-0.81,-0.44,0.30,9.64,7044
16:38:02.725,70950,-0.80,-0.44,0.30,9.58,7045
16:38:02.733,70960,-0.73,-0.42,0.15,8.57,7046
16:38:02.746,70970,-0.73,-0.28,-0.11,7.87,7047
16:38:02.757,70980,-0.76,-0.10,-0.41,8.67,7048
16:38:02.768,70990,-0.88,0.05,-0.63,10.85,7049
16:38:02.778,71000,-0.99,0.19,-0.91,13.59,7050
16:38:02.783,71010,-0.85,0.19,-1.01,13.31,7051
16:38:02.793,71020,-0.74,-0.01,-0.89,11.59,7052
16:38:02.804,71030,-0.60,-0.21,-0.52,8.25,7053
16:38:02.817,71040,-0.45,-0.47,-0.25,6.99,7054
16:38:02.825,71050,-0.28,-0.65,-0.06,7.11,7055
16:38:02.840,71060,-0.21,-0.68,0.13,7.23,7056
16:38:02.845,71070,-0.26,-0.66,0.27,7.57,7057
16:38:02.855,71080,-0.98,-0.70,0.37,12.66,7058
16:38:02.866,71090,-1.50,-0.81,0.41,17.54,7059
16:38:02.875,71100,-2.02,-0.76,0.35,21.84,7060
16:38:02.884,71110,-1.91,-0.25,0.12,19.29,7061
16:38:02.897,71120,-1.80,0.56,-0.16,18.95,7062
16:38:02.904,71130,-1.66,0.41,-0.48,17.77,7063
16:38:02.916,71140,-1.44,-0.24,-0.13,14.68,7064
16:38:02.927,71150,-0.94,-0.85,0.04,12.65,7065
16:38:02.937,71160,-0.72,-0.84,-0.22,11.31,7066
16:38:02.946,71170,-0.72,-0.35,-0.26,8.35,7067
16:38:02.955,71180,-0.66,-0.60,0.07,9.00,7068
16:38:02.963,71190,-0.60,-0.83,0.39,10.92,7069
16:38:02.974,71200,-0.89,-0.89,0.42,13.26,7070
16:38:02.984,71210,-0.48,-0.62,0.52,9.46,7071
16:38:03.026,71220,-0.48,-0.58,0.48,8.94,7072
16:38:03.029,71230,-0.62,-0.53,0.48,9.45,7073
16:38:03.034,71240,-0.82,-0.55,0.52,11.15,7074
16:38:03.042,71250,-0.86,-0.68,0.34,11.48,7075
16:38:03.043,71260,-0.81,-0.85,0.23,11.91,7076
16:38:03.044,71270,-0.66,-0.91,0.17,11.36,7077
16:38:03.062,71280,-0.57,-0.93,0.10,10.98,7078
16:38:03.065,71290,-0.54,-0.82,0.08,9.84,7079
16:38:03.073,71300,-0.61,-0.70,0.16,9.47,7080
16:38:03.085,71310,-0.70,-0.60,0.27,9.65,7081
16:38:03.094,71320,-0.84,-0.60,0.36,10.89,7082
16:38:03.104,71330,-0.89,-0.59,0.38,11.34,7083
16:38:03.113,71340,-0.89,-0.59,0.34,11.22,7084
16:38:03.127,71350,-0.86,-0.54,0.29,10.57,7085
16:38:03.140,71360,-0.84,-0.53,0.24,10.24,7086
16:38:03.143,71370,-0.78,-0.60,0.19,9.99,7087
16:38:03.156,71380,-0.76,-0.62,0.18,9.99,7088
16:38:03.166,71390,-0.73,-0.69,0.14,10.12,7089
16:38:03.176,71400,-0.72,-0.74,0.10,10.41,7090
16:38:03.217,71410,-0.70,-0.76,0.07,10.36,7091
16:38:03.219,71420,-0.69,-0.74,0.03,10.11,7092
16:38:03.220,71430,-0.74,-0.65,0.06,9.92,7093
16:38:03.221,71440,-0.82,-0.55,0.10,9.97,7094
16:38:03.259,71450,-0.88,-0.49,0.09,10.12,7095
16:38:03.260,71460,-0.92,-0.45,0.07,10.25,7096
16:38:03.263,71470,-0.91,-0.50,0.08,10.46,7097
16:38:03.264,71480,-0.86,-0.58,0.10,10.47,7098
16:38:03.299,71490,-0.79,-0.63,0.09,10.19,7099
16:38:03.337,71500,-0.76,-0.65,0.11,10.04,7100
16:38:03.339,71510,-0.76,-0.64,0.13,10.03,7101
16:38:03.339,71520,-0.80,-0.60,0.14,10.09,7102
16:38:03.341,71530,-0.82,-0.57,0.17,10.13,7103
16:38:03.341,71540,-0.84,-0.56,0.14,10.18,7104
16:38:03.341,71550,-0.80,-0.57,0.16,9.96,7105
16:38:03.341,71560,-0.79,-0.61,0.18,10.14,7106
16:38:03.379,71570,-0.80,-0.60,0.14,10.10,7107
16:38:03.379,71580,-0.83,-0.56,0.05,10.07,7108
16:38:03.382,71590,-0.85,-0.56,0.00,10.15,7109
16:38:03.382,71600,-0.88,-0.57,0.00,10.47,7110
16:38:03.415,71610,-0.89,-0.55,0.02,10.48,7111
16:38:03.419,71620,-0.86,-0.51,-0.02,10.03,7112
16:38:03.419,71630,-0.83,-0.52,-0.05,9.80,7113
16:38:03.419,71640,-0.83,-0.53,-0.04,9.83,7114
16:38:03.424,71650,-0.83,-0.53,-0.05,9.87,7115
16:38:03.434,71660,-0.85,-0.55,-0.03,10.13,7116
16:38:03.445,71670,-0.87,-0.50,-0.01,10.04,7117
16:38:03.460,71680,-0.86,-0.48,-0.05,9.90,7118
16:38:03.465,71690,-0.82,-0.48,-0.11,9.60,7119
16:38:03.473,71700,-0.82,-0.53,-0.07,9.81,7120
16:38:03.486,71710,-0.90,-0.56,0.02,10.60,7121
16:38:03.497,71720,-1.08,-0.70,0.08,12.86,7122
16:38:03.504,71730,-1.23,-0.82,0.25,14.96,7123
16:38:03.517,71740,-1.49,-0.66,0.29,16.59,7124
16:38:03.543,71750,-1.51,-0.41,0.26,15.85,7125
16:38:03.544,71760,-1.52,-0.29,0.16,15.55,7126
16:38:03.545,71770,-1.58,-0.20,0.06,15.92,7127
16:38:03.554,71780,-1.73,-0.35,-0.01,17.63,7128
16:38:03.563,71790,-1.63,-0.48,0.08,17.03,7129
16:38:03.573,71800,-1.50,-0.59,0.08,16.12,7130
16:38:03.586,71810,-1.19,-0.79,0.04,14.31,7131
16:38:03.594,71820,-0.91,-1.00,0.15,13.59,7132
16:38:03.604,71830,-0.72,-1.14,0.41,14.12,7133
16:38:03.613,71840,-0.65,-1.23,0.60,15.17,7134
16:38:03.623,71850,-0.59,-1.23,0.74,15.48,7135
16:38:03.636,71860,-0.55,-1.08,0.79,14.43,7136
16:38:03.645,71870,-0.46,-0.86,0.76,12.36,7137
16:38:03.653,71880,-0.22,-0.74,0.99,12.51,7138
16:38:03.665,71890,-0.07,-0.72,1.09,13.14,7139
16:38:03.673,71900,-0.12,-0.67,1.11,13.04,7140
16:38:03.683,71910,-0.28,-0.39,0.77,9.10,7141
16:38:03.698,71920,-0.46,-0.33,0.62,8.38,7142
16:38:03.708,71930,-0.53,-0.45,0.68,9.72,7143
16:38:03.714,71940,-0.51,-0.63,0.66,10.42,7144
16:38:03.725,71950,-0.42,-0.82,0.65,11.29,7145
16:38:03.733,71960,-0.22,-0.82,0.63,10.61,7146
16:38:03.744,71970,-0.06,-0.79,0.59,9.85,7147
16:38:03.754,71980,0.01,-0.73,0.58,9.35,7148
16:38:03.769,71990,-0.09,-0.60,0.62,8.69,7149
16:38:03.775,72000,-0.22,-0.47,0.68,8.51,7150
16:38:03.785,72010,-0.32,-0.40,0.70,8.66,7151
16:38:03.799,72020,-0.32,-0.37,0.71,8.63,7152
16:38:03.805,72030,-0.22,-0.35,0.69,8.06,7153
16:38:03.814,72040,-0.11,-0.37,0.67,7.70,7154
16:38:03.830,72050,-0.04,-0.41,0.66,7.73,7155
16:38:03.833,72060,-0.02,-0.46,0.63,7.82,7156
16:38:03.844,72070,-0.12,-0.44,0.65,7.97,7157
16:38:03.854,72080,-0.26,-0.40,0.72,8.61,7158
16:38:03.898,72090,-0.35,-0.34,0.74,8.85,7159
16:38:03.900,72100,-0.36,-0.29,0.63,7.84,7160
16:38:03.900,72110,-0.35,-0.29,0.49,6.74,7161
16:38:03.901,72120,-0.35,-0.34,0.56,7.40,7162
16:38:03.940,72130,-0.36,-0.41,0.60,8.09,7163
16:38:03.942,72140,-0.38,-0.46,0.49,7.72,7164
16:38:03.942,72150,-0.39,-0.62,0.50,8.85,7165
16:38:03.944,72160,-0.47,-0.71,0.51,9.93,7166
16:38:03.946,72170,-0.50,-0.75,0.50,10.30,7167
16:38:03.981,72180,-0.52,-0.69,0.46,9.81,7168
16:38:03.983,72190,-0.59,-0.68,0.47,10.14,7169
16:38:03.983,72200,-0.75,-0.63,0.40,10.57,7170
16:38:03.983,72210,-0.76,-0.49,0.28,9.49,7171
16:38:04.022,72220,-0.79,-0.44,0.11,9.09,7172
16:38:04.025,72230,-0.73,-0.29,0.16,8.02,7173
16:38:04.025,72240,-0.75,-0.20,-0.06,7.77,7174
16:38:04.025,72250,-0.82,-0.03,-0.29,8.69,7175
16:38:04.062,72260,-0.95,0.16,-0.60,11.40,7176
16:38:04.066,72270,-1.09,0.38,-0.88,14.46,7177
16:38:04.066,72280,-0.93,0.31,-1.05,14.33,7178
16:38:04.066,72290,-0.80,0.01,-0.91,12.07,7179
16:38:04.097,72300,-0.65,-0.32,-0.66,9.87,7180
16:38:04.099,72310,-0.50,-0.57,-0.33,8.30,7181
16:38:04.099,72320,-0.46,-0.82,-0.12,9.51,7182
16:38:04.109,72330,-0.62,-0.87,0.01,10.65,7183
16:38:04.116,72340,-0.82,-0.81,0.06,11.49,7184
16:38:04.123,72350,-1.19,-0.50,0.21,13.08,7185
16:38:04.140,72360,-1.75,-0.28,0.30,18.00,7186
16:38:04.144,72370,-1.96,-0.03,0.24,19.75,7187
16:38:04.154,72380,-1.79,0.32,0.03,18.14,7188
16:38:04.167,72390,-1.52,0.57,-0.11,16.22,7189
16:38:04.179,72400,-1.18,-0.10,0.02,11.86,7190
16:38:04.184,72410,-1.01,-0.69,-0.09,12.24,7191
16:38:04.194,72420,-0.75,-0.85,0.12,11.41,7192
16:38:04.206,72430,-0.61,-0.81,0.12,10.16,7193
16:38:04.216,72440,-0.53,-0.80,0.04,9.63,7194
16:38:04.225,72450,-0.55,-0.91,0.36,11.26,7195
16:38:04.238,72460,-0.76,-0.95,0.45,12.99,7196
16:38:04.245,72470,-0.83,-0.68,0.55,12.01,7197
16:38:04.253,72480,-0.80,-0.38,0.58,10.59,7198
16:38:04.269,72490,-0.78,-0.18,0.60,10.03,7199
16:38:04.273,72500,-1.02,-0.12,0.48,11.33,7200
16:38:04.288,72510,-0.95,-0.36,0.32,10.68,7201
16:38:04.293,72520,-0.78,-0.67,0.23,10.53,7202
16:38:04.389,72530,-0.65,-0.96,0.08,11.67,7203
16:38:04.390,72540,-0.50,-1.09,0.03,12.04,7204
16:38:04.390,72550,-0.38,-1.19,-0.08,12.49,7205
16:38:04.391,72560,-0.33,-1.15,-0.08,12.03,7206
16:38:04.393,72570,-0.52,-0.95,0.05,10.84,7207
16:38:04.394,72580,-0.66,-0.80,0.30,10.80,7208
16:38:04.395,72590,-0.81,-0.65,0.21,10.61,7209
16:38:04.397,72600,-0.97,-0.54,0.27,11.43,7210
16:38:04.398,72610,-1.06,-0.40,0.32,11.76,7211
16:38:04.399,72620,-1.06,-0.28,0.34,11.50,7212
16:38:04.405,72630,-0.93,-0.32,0.32,10.37,7213
16:38:04.413,72640,-0.81,-0.51,0.23,9.85,7214
16:38:04.425,72650,-0.74,-0.68,0.16,10.17,7215
16:38:04.438,72660,-0.71,-0.79,0.11,10.67,7216
16:38:04.448,72670,-0.66,-0.85,0.10,10.80,7217
16:38:04.458,72680,-0.63,-0.86,0.06,10.65,7218
16:38:04.464,72690,-0.68,-0.75,0.07,10.11,7219
16:38:04.475,72700,-0.75,-0.63,0.09,9.84,7220
16:38:04.491,72710,-0.85,-0.52,0.10,10.05,7221
16:38:04.494,72720,-0.92,-0.45,0.13,10.33,7222
16:38:04.506,72730,-0.94,-0.41,0.16,10.33,7223
16:38:04.514,72740,-0.90,-0.47,0.13,10.23,7224
16:38:04.529,72750,-0.83,-0.55,0.10,10.02,7225
16:38:04.533,72760,-0.78,-0.63,0.04,10.02,7226
16:38:04.549,72770,-0.75,-0.67,0.01,10.06,7227
16:38:04.555,72780,-0.78,-0.66,-0.00,10.19,7228
16:38:04.564,72790,-0.81,-0.60,0.02,10.11,7229
16:38:04.603,72800,-0.84,-0.58,0.06,10.25,7230
16:38:04.604,72810,-0.84,-0.57,0.07,10.17,7231
16:38:04.619,72820,-0.82,-0.57,0.10,10.02,7232
16:38:04.619,72830,-0.79,-0.57,0.10,9.80,7233
16:38:04.619,72840,-0.79,-0.56,0.08,9.75,7234
16:38:04.627,72850,-0.80,-0.55,0.04,9.71,7235
16:38:04.667,72860,-0.83,-0.53,0.05,9.82,7236
16:38:04.671,72870,-0.87,-0.51,0.04,10.09,7237
16:38:04.671,72880,-0.88,-0.51,0.05,10.16,7238
16:38:04.671,72890,-0.79,-0.57,0.05,9.81,7239
16:38:04.709,72900,-0.75,-0.62,0.05,9.70,7240
16:38:04.709,72910,-0.71,-0.67,0.05,9.78,7241
16:38:04.712,72920,-0.73,-0.66,0.11,9.96,7242
16:38:04.712,72930,-0.75,-0.64,0.14,9.96,7243
16:38:04.749,72940,-0.73,-0.63,0.14,9.79,7244
16:38:04.752,72950,-0.69,-0.66,0.17,9.75,7245
16:38:04.752,72960,-0.68,-0.71,0.18,9.98,7246
16:38:04.752,72970,-0.72,-0.68,0.19,10.05,7247
16:38:04.754,72980,-0.79,-0.59,0.21,10.09,7248
16:38:04.791,72990,-0.85,-0.53,0.22,10.23,7249
16:38:04.794,73000,-0.86,-0.51,0.21,10.27,7250
16:38:04.794,73010,-0.86,-0.52,0.15,10.17,7251
16:38:04.794,73020,-0.88,-0.50,0.09,10.15,7252
16:38:04.826,73030,-0.94,-0.46,0.06,10.50,7253
16:38:04.826,73040,-1.02,-0.52,0.03,11.41,7254
16:38:04.829,73050,-1.10,-0.70,-0.00,13.09,7255
16:38:04.863,73060,-1.24,-0.71,0.04,14.32,7256
16:38:04.866,73070,-1.35,-0.56,-0.02,14.60,7257
16:38:04.867,73080,-1.34,-0.45,-0.15,14.18,7258
16:38:04.868,73090,-1.26,-0.41,-0.09,13.26,7259
16:38:04.898,73100,-1.51,-0.34,-0.19,15.60,7260
16:38:04.898,73110,-1.61,-0.38,-0.13,16.58,7261
16:38:04.900,73120,-1.60,-0.40,-0.02,16.49,7262
16:38:04.904,73130,-1.52,-0.41,-0.01,15.76,7263
16:38:04.915,73140,-1.28,-0.62,0.04,14.26,7264
16:38:04.923,73150,-1.06,-0.85,0.16,13.71,7265
16:38:04.934,73160,-0.80,-1.03,0.30,13.37,7266
16:38:04.948,73170,-0.68,-1.14,0.44,13.96,7267
16:38:04.956,73180,-0.54,-1.21,0.74,15.21,7268
16:38:04.967,73190,-0.52,-1.23,0.91,16.16,7269
16:38:04.973,73200,-0.51,-1.08,0.90,14.88,7270
16:38:04.989,73210,-0.53,-0.89,0.83,13.31,7271
16:38:04.994,73220,-0.45,-0.73,0.87,12.24,7272
16:38:05.008,73230,-0.21,-0.67,1.09,12.98,7273
16:38:05.016,73240,-0.04,-0.62,1.15,13.06,7274
16:38:05.027,73250,-0.06,-0.49,0.99,11.08,7275
16:38:05.037,73260,-0.21,-0.39,0.74,8.64,7276
16:38:05.044,73270,-0.33,-0.46,0.62,8.38,7277
16:38:05.061,73280,-0.37,-0.67,0.57,9.53,7278
16:38:05.066,73290,-0.37,-0.85,0.52,10.60,7279
16:38:05.073,73300,-0.22,-0.86,0.62,10.81,7280
16:38:05.090,73310,-0.06,-0.85,0.62,10.56,7281
16:38:05.093,73320,0.04,-0.84,0.50,9.80,7282
16:38:05.103,73330,-0.00,-0.54,0.65,8.47,7283
16:38:05.113,73340,-0.10,-0.40,0.69,8.05,7284
16:38:05.124,73350,-0.19,-0.32,0.68,7.73,7285
16:38:05.134,73360,-0.24,-0.23,0.67,7.46,7286
16:38:05.143,73370,-0.23,-0.18,0.73,7.88,7287
16:38:05.160,73380,-0.22,-0.21,0.77,8.27,7288
16:38:05.163,73390,-0.19,-0.22,0.70,7.63,7289
16:38:05.177,73400,-0.14,-0.31,0.61,6.96,7290
16:38:05.184,73410,-0.23,-0.44,0.51,7.16,7291
16:38:05.193,73420,-0.30,-0.48,0.58,8.11,7292
16:38:05.209,73430,-0.34,-0.52,0.65,8.99,7293
16:38:05.214,73440,-0.31,-0.56,0.63,8.98,7294
16:38:05.226,73450,-0.24,-0.62,0.57,8.74,7295
16:38:05.237,73460,-0.20,-0.66,0.54,8.76,7296
16:38:05.246,73470,-0.20,-0.65,0.52,8.57,7297
16:38:05.256,73480,-0.27,-0.54,0.44,7.48,7298
16:38:05.267,73490,-0.41,-0.53,0.44,8.06,7299
16:38:05.277,73500,-0.53,-0.55,0.52,9.23,7300
16:38:05.284,73510,-0.63,-0.57,0.58,10.31,7301
16:38:05.293,73520,-0.67,-0.55,0.46,9.84,7302
16:38:05.303,73530,-0.67,-0.52,0.37,9.19,7303
16:38:05.314,73540,-0.71,-0.53,0.36,9.60,7304
16:38:05.325,73550,-0.78,-0.64,0.37,10.80,7305
16:38:05.377,73560,-0.72,-0.64,0.45,10.64,7306
16:38:05.377,73570,-0.84,-0.60,0.14,10.42,7307
16:38:05.381,73580,-0.83,-0.35,-0.09,9.01,7308
16:38:05.381,73590,-0.84,-0.12,-0.17,8.70,7309
16:38:05.381,73600,-0.93,0.06,-0.26,9.68,7310
16:38:05.418,73610,-1.02,0.28,-0.53,11.80,7311
16:38:05.418,73620,-1.13,0.18,-0.88,14.44,7312
16:38:05.422,73630,-0.92,0.15,-1.08,14.32,7313
16:38:05.422,73640,-0.75,0.06,-1.01,12.60,7314
16:38:05.459,73650,-0.66,-0.25,-0.56,9.06,7315
16:38:05.459,73660,-0.60,-0.39,-0.31,7.83,7316
16:38:05.462,73670,-0.54,-0.61,-0.13,8.20,7317
16:38:05.462,73680,-0.54,-0.71,-0.08,8.93,7318
16:38:05.464,73690,-0.68,-0.86,0.02,10.98,7319
16:38:05.501,73700,-0.77,-0.85,0.12,11.52,7320
16:38:05.503,73710,-1.09,-0.67,0.19,12.87,7321
16:38:05.503,73720,-1.40,-0.46,0.17,14.86,7322
16:38:05.503,73730,-1.65,-0.20,0.11,16.66,7323
16:38:05.542,73740,-1.67,0.04,0.01,16.67,7324
16:38:05.542,73750,-1.57,0.21,-0.10,15.83,7325
16:38:05.544,73760,-1.40,-0.15,-0.15,14.19,7326
16:38:05.545,73770,-1.07,-0.67,0.08,12.65,7327
16:38:05.556,73780,-0.92,-0.76,0.07,11.95,7328
16:38:05.564,73790,-0.70,-0.85,-0.16,11.07,7329
16:38:05.581,73800,-0.50,-1.08,-0.04,11.87,7330
16:38:05.590,73810,-0.35,-0.90,0.40,10.41,7331
16:38:05.594,73820,-0.54,-0.68,0.42,9.66,7332
16:38:05.604,73830,-0.65,-0.47,0.66,10.41,7333
16:38:05.614,73840,-0.73,-0.27,0.62,9.98,7334
16:38:05.720,73850,-0.94,-0.18,0.61,11.31,7335
16:38:05.721,73860,-1.14,-0.11,0.57,12.79,7336
16:38:05.721,73870,-1.08,-0.34,0.38,11.95,7337
16:38:05.722,73880,-0.82,-0.78,0.26,11.59,7338
16:38:05.722,73890,-0.61,-1.08,0.08,12.41,7339
16:38:05.723,73900,-0.42,-1.17,-0.03,12.42,7340
16:38:05.724,73910,-0.31,-1.15,-0.13,12.03,7341
16:38:05.726,73920,-0.47,-0.93,-0.06,10.43,7342
16:38:05.727,73930,-0.67,-0.80,0.09,10.44,7343
16:38:05.729,73940,-0.81,-0.72,0.14,10.96,7344
16:38:05.732,73950,-0.92,-0.57,0.20,10.96,7345
16:38:05.733,73960,-0.96,-0.49,0.27,11.15,7346
16:38:05.748,73970,-0.97,-0.44,0.30,11.08,7347
16:38:05.753,73980,-0.92,-0.42,0.28,10.53,7348
16:38:05.767,73990,-0.82,-0.54,0.21,10.03,7349
16:38:05.777,74000,-0.78,-0.62,0.18,10.12,7350
16:38:05.786,74010,-0.76,-0.66,0.15,10.16,7351
16:38:05.796,74020,-0.77,-0.70,0.10,10.40,7352
16:38:05.806,74030,-0.74,-0.73,0.07,10.45,7353
16:38:05.816,74040,-0.75,-0.71,0.09,10.32,7354
16:38:05.823,74050,-0.75,-0.66,0.12,10.02,7355
16:38:05.838,74060,-0.77,-0.61,0.12,9.89,7356
16:38:05.845,74070,-0.81,-0.54,0.10,9.81,7357
16:38:05.854,74080,-0.85,-0.51,0.11,10.00,7358
16:38:05.869,74090,-0.87,-0.52,0.10,10.17,7359
16:38:05.874,74100,-0.84,-0.57,0.08,10.22,7360
16:38:05.887,74110,-0.80,-0.61,0.04,10.04,7361
16:38:05.924,74120,-0.77,-0.64,0.03,10.00,7362
16:38:05.925,74130,-0.76,-0.64,0.04,9.96,7363
16:38:05.939,74140,-0.79,-0.62,0.03,10.03,7364
16:38:05.942,74150,-0.78,-0.62,0.05,9.94,7365
16:38:05.942,74160,-0.78,-0.61,0.07,9.93,7366
16:38:05.963,74170,-0.80,-0.58,0.08,9.87,7367
16:38:05.972,74180,-0.81,-0.56,0.07,9.85,7368
16:38:05.972,74190,-0.82,-0.56,0.05,9.96,7369
16:38:05.974,74200,-0.83,-0.57,0.05,10.10,7370
16:38:05.989,74210,-0.84,-0.57,0.03,10.14,7371
16:38:05.994,74220,-0.81,-0.59,0.05,10.02,7372
16:38:06.004,74230,-0.80,-0.59,0.04,9.95,7373
16:38:06.013,74240,-0.79,-0.57,0.05,9.72,7374
16:38:06.027,74250,-0.78,-0.58,0.07,9.74,7375
16:38:06.034,74260,-0.76,-0.62,0.06,9.78,7376
16:38:06.048,74270,-0.77,-0.64,0.08,10.10,7377
16:38:06.053,74280,-0.79,-0.63,0.08,10.11,7378
16:38:06.064,74290,-0.85,-0.59,0.08,10.39,7379
16:38:06.104,74300,-0.92,-0.52,0.10,10.67,7380
16:38:06.104,74310,-0.93,-0.50,0.13,10.64,7381
16:38:06.105,74320,-0.85,-0.56,0.05,10.23,7382
16:38:06.108,74330,-0.83,-0.57,-0.01,10.11,7383
16:38:06.113,74340,-0.86,-0.56,-0.01,10.27,7384
16:38:06.124,74350,-0.95,-0.52,0.01,10.79,7385
16:38:06.135,74360,-1.09,-0.45,0.01,11.80,7386
16:38:06.190,74370,-1.28,-0.51,-0.05,13.78,7387
16:38:06.190,74380,-1.41,-0.67,0.01,15.61,7388
16:38:06.190,74390,-1.61,-0.63,0.03,17.34,7389
16:38:06.192,74400,-1.78,-0.49,-0.23,18.59,7390
16:38:06.194,74410,-1.63,-0.51,-0.43,17.65,7391
16:38:06.194,74420,-1.38,-0.58,-0.01,14.95,7392
16:38:06.230,74430,-1.50,-0.69,0.21,16.67,7393
16:38:06.230,74440,-1.59,-0.67,0.32,17.59,7394
16:38:06.232,74450,-1.38,-0.64,0.28,15.44,7395
16:38:06.233,74460,-0.94,-0.78,0.26,12.51,7396
16:38:06.271,74470,-0.68,-0.93,0.33,11.95,7397
16:38:06.271,74480,-0.44,-1.15,0.59,13.61,7398
16:38:06.273,74490,-0.39,-1.29,0.90,16.23,7399
16:38:06.274,74500,-0.51,-1.38,1.00,17.80,7400
16:38:06.313,74510,-0.60,-1.28,0.79,16.19,7401
16:38:06.314,74520,-0.53,-1.04,0.72,13.66,7402
16:38:06.315,74530,-0.19,-0.90,0.96,13.31,7403
16:38:06.316,74540,0.04,-0.80,1.20,14.44,7404
16:38:06.354,74550,0.09,-0.65,1.11,12.94,7405
16:38:06.354,74560,-0.11,-0.41,0.79,8.93,7406
16:38:06.356,74570,-0.32,-0.37,0.52,7.11,7407
16:38:06.357,74580,-0.44,-0.53,0.48,8.41,7408
16:38:06.376,74590,-0.51,-0.77,0.47,10.36,7409
16:38:06.376,74600,-0.33,-0.78,0.61,10.45,7410
16:38:06.383,74610,-0.11,-0.82,0.58,10.11,7411
16:38:06.394,74620,0.04,-0.74,0.57,9.33,7412
16:38:06.412,74630,0.05,-0.62,0.62,8.74,7413
16:38:06.415,74640,-0.02,-0.48,0.63,7.95,7414
16:38:06.426,74650,-0.11,-0.34,0.63,7.24,7415
16:38:06.435,74660,-0.21,-0.25,0.67,7.45,7416
16:38:06.445,74670,-0.22,-0.18,0.68,7.40,7417
16:38:06.453,74680,-0.19,-0.18,0.78,8.23,7418
16:38:06.471,74690,-0.20,-0.27,0.74,8.11,7419
16:38:06.474,74700,-0.14,-0.34,0.68,7.74,7420
16:38:06.488,74710,-0.16,-0.39,0.53,6.75,7421
16:38:06.497,74720,-0.20,-0.41,0.54,7.10,7422
16:38:06.506,74730,-0.31,-0.46,0.60,8.17,7423
16:38:06.514,74740,-0.34,-0.49,0.60,8.51,7424
16:38:06.525,74750,-0.34,-0.49,0.57,8.28,7425
16:38:06.533,74760,-0.29,-0.53,0.58,8.39,7426
16:38:06.551,74770,-0.26,-0.53,0.53,7.93,7427
16:38:06.555,74780,-0.36,-0.52,0.47,7.89,7428
16:38:06.570,74790,-0.48,-0.58,0.54,9.25,7429
16:38:06.574,74800,-0.55,-0.65,0.54,10.10,7430
16:38:06.591,74810,-0.64,-0.71,0.59,11.27,7431
16:38:06.595,74820,-0.67,-0.71,0.59,11.40,7432
16:38:06.603,74830,-0.64,-0.57,0.41,9.51,7433
16:38:06.615,74840,-0.69,-0.51,0.24,8.92,7434
16:38:06.626,74850,-0.76,-0.45,0.24,9.14,7435
16:38:06.638,74860,-0.86,-0.32,0.19,9.34,7436
16:38:06.645,74870,-0.83,-0.19,-0.00,8.50,7437
16:38:06.663,74880,-0.96,-0.06,-0.23,9.86,7438
16:38:06.664,74890,-0.95,0.15,-0.49,10.81,7439
16:38:06.673,74900,-1.09,0.38,-1.05,15.54,7440
16:38:06.683,74910,-1.04,0.43,-1.26,16.93,7441
16:38:06.694,74920,-0.87,0.32,-1.04,13.92,7442
16:38:06.705,74930,-0.74,0.04,-0.60,9.54,7443
16:38:06.714,74940,-0.55,-0.33,-0.16,6.64,7444
16:38:06.723,74950,-0.48,-0.75,-0.01,8.93,7445
16:38:06.733,74960,-0.42,-0.85,0.13,9.54,7446
16:38:06.744,74970,-0.58,-0.93,0.13,11.02,7447
16:38:06.755,74980,-0.81,-0.95,0.18,12.61,7448
16:38:06.769,74990,-1.17,-0.77,0.26,14.29,7449
16:38:06.773,75000,-1.57,-0.59,0.21,16.88,7450
16:38:06.784,75010,-1.71,-0.22,0.12,17.31,7451
16:38:06.796,75020,-1.70,0.16,0.02,17.07,7452
16:38:06.804,75030,-1.61,0.25,-0.11,16.30,7453
16:38:06.813,75040,-1.35,-0.19,-0.00,13.67,7454
16:38:06.823,75050,-1.00,-0.59,0.09,11.67,7455
16:38:06.836,75060,-0.81,-0.74,-0.02,10.95,7456
16:38:06.877,75070,-0.74,-0.75,-0.15,10.65,7457
16:38:06.877,75080,-0.63,-0.97,0.03,11.53,7458
16:38:06.879,75090,-0.51,-0.93,0.31,11.01,7459
16:38:06.881,75100,-0.65,-0.84,0.57,12.07,7460
16:38:06.908,75110,-0.75,-0.48,0.43,9.92,7461
16:38:06.909,75120,-0.65,-0.27,0.65,9.61,7462
16:38:06.910,75130,-0.83,-0.18,0.61,10.40,7463
16:38:06.914,75140,-0.98,-0.22,0.55,11.42,7464
16:38:06.950,75150,-0.88,-0.61,0.34,11.29,7465
16:38:06.951,75160,-0.72,-0.91,0.22,11.80,7466
16:38:06.952,75170,-0.62,-1.10,0.05,12.64,7467
16:38:06.953,75180,-0.44,-1.12,-0.13,12.11,7468
16:38:07.046,75190,-0.39,-1.08,-0.18,11.60,7469
16:38:07.047,75200,-0.53,-0.85,0.04,10.00,7470
16:38:07.074,75210,-0.68,-0.80,0.12,10.57,7471
16:38:07.076,75220,-0.77,-0.71,0.16,10.58,7472
16:38:07.076,75230,-0.87,-0.62,0.19,10.80,7473
16:38:07.076,75240,-0.95,-0.56,0.19,11.23,7474
16:38:07.076,75250,-0.97,-0.48,0.19,10.94,7475
16:38:07.076,75260,-0.93,-0.42,0.18,10.36,7476
16:38:07.076,75270,-0.85,-0.50,0.16,10.00,7477
16:38:07.076,75280,-0.77,-0.62,0.13,9.96,7478
16:38:07.078,75290,-0.75,-0.70,0.09,10.28,7479
16:38:07.080,75300,-0.74,-0.76,0.07,10.62,7480
16:38:07.084,75310,-0.70,-0.78,0.05,10.53,7481
16:38:07.095,75320,-0.70,-0.74,0.04,10.19,7482
16:38:07.106,75330,-0.71,-0.70,0.07,9.98,7483
16:38:07.116,75340,-0.75,-0.62,0.08,9.75,7484
16:38:07.124,75350,-0.82,-0.52,0.09,9.73,7485
16:38:07.135,75360,-0.91,-0.46,0.12,10.27,7486
16:38:07.150,75370,-0.97,-0.41,0.16,10.69,7487
16:38:07.154,75380,-0.99,-0.38,0.21,10.80,7488
16:38:07.165,75390,-0.90,-0.46,0.16,10.23,7489
16:38:07.174,75400,-0.80,-0.57,0.10,9.87,7490
16:38:07.188,75410,-0.77,-0.65,0.06,10.06,7491
16:38:07.198,75420,-0.74,-0.72,0.04,10.30,7492
16:38:07.204,75430,-0.75,-0.73,0.03,10.53,7493
16:38:07.244,75440,-0.78,-0.68,0.08,10.42,7494
16:38:07.245,75450,-0.80,-0.62,0.11,10.19,7495
16:38:07.259,75460,-0.81,-0.55,0.14,9.92,7496
16:38:07.261,75470,-0.83,-0.52,0.15,9.91,7497
16:38:07.261,75480,-0.87,-0.48,0.13,10.03,7498
16:38:07.276,75490,-0.89,-0.48,0.09,10.13,7499
16:38:07.279,75500,-0.87,-0.54,0.04,10.25,7500
16:38:07.286,75510,-0.83,-0.56,-0.02,9.96,7501
16:38:07.296,75520,-0.78,-0.59,-0.05,9.80,7502
16:38:07.307,75530,-0.77,-0.64,-0.05,10.04,7503
16:38:07.317,75540,-0.81,-0.69,0.02,10.61,7504
16:38:07.324,75550,-0.82,-0.68,0.03,10.62,7505
16:38:07.339,75560,-0.80,-0.64,0.01,10.24,7506
16:38:07.343,75570,-0.81,-0.57,0.01,9.92,7507
16:38:07.383,75580,-0.86,-0.51,-0.00,10.02,7508
16:38:07.384,75590,-0.88,-0.47,-0.00,10.01,7509
16:38:07.385,75600,-0.86,-0.54,0.01,10.19,7510
16:38:07.387,75610,-0.91,-0.59,0.04,10.79,7511
16:38:07.394,75620,-0.97,-0.59,0.08,11.37,7512
16:38:07.406,75630,-1.13,-0.59,0.07,12.76,7513
16:38:07.417,75640,-1.16,-0.77,0.12,14.01,7514
16:38:07.426,75650,-1.38,-0.68,0.17,15.44,7515
16:38:07.437,75660,-1.49,-0.47,0.01,15.66,7516
16:38:07.448,75670,-1.50,-0.34,-0.17,15.44,7517
16:38:07.454,75680,-1.65,-0.31,-0.28,17.01,7518
16:38:07.465,75690,-1.75,-0.32,-0.26,17.99,7519
16:38:07.474,75700,-1.75,-0.39,-0.01,17.97,7520
16:38:07.488,75710,-1.70,-0.45,-0.03,17.57,7521
16:38:07.497,75720,-1.42,-0.65,-0.11,15.68,7522
16:38:07.503,75730,-1.07,-0.85,-0.00,13.63,7523
16:38:07.515,75740,-0.79,-1.13,0.26,14.04,7524
16:38:07.524,75750,-0.63,-1.17,0.58,14.47,7525
16:38:07.542,75760,-0.61,-1.40,0.74,16.92,7526
16:38:07.546,75770,-0.70,-1.43,0.96,18.61,7527
16:38:07.555,75780,-0.59,-1.18,0.82,15.51,7528
16:38:07.566,75790,-0.50,-0.94,0.74,12.97,7529
16:38:07.577,75800,-0.28,-0.91,1.05,14.21,7530
16:38:07.618,75810,0.01,-0.73,1.24,14.39,7531
16:38:07.619,75820,-0.04,-0.59,1.14,12.87,7532
16:38:07.620,75830,-0.26,-0.40,0.86,9.81,7533
16:38:07.620,75840,-0.44,-0.35,0.68,8.81,7534
16:38:07.658,75850,-0.44,-0.55,0.68,9.82,7535
16:38:07.659,75860,-0.39,-0.78,0.66,10.93,7536
16:38:07.660,75870,-0.33,-0.94,0.61,11.65,7537
16:38:07.661,75880,-0.11,-0.88,0.64,10.93,7538
16:38:07.664,75890,0.05,-0.79,0.61,9.97,7539
16:38:07.700,75900,0.09,-0.69,0.56,8.90,7540
16:38:07.701,75910,-0.00,-0.53,0.59,7.88,7541
16:38:07.702,75920,-0.10,-0.42,0.71,8.33,7542
16:38:07.703,75930,-0.16,-0.33,0.70,7.87,7543
16:38:07.742,75940,-0.17,-0.24,0.70,7.54,7544
16:38:07.742,75950,-0.11,-0.24,0.67,7.16,7545
16:38:07.743,75960,-0.05,-0.27,0.68,7.35,7546
16:38:07.744,75970,0.07,-0.29,0.70,7.65,7547
16:38:07.782,75980,0.02,-0.34,0.63,7.15,7548
16:38:07.783,75990,-0.13,-0.39,0.58,7.15,7549
16:38:07.785,76000,-0.25,-0.36,0.66,7.95,7550
16:38:07.786,76010,-0.30,-0.35,0.70,8.36,7551
16:38:07.810,76020,-0.26,-0.39,0.64,7.94,7552
16:38:07.810,76030,-0.22,-0.45,0.62,8.00,7553
16:38:07.815,76040,-0.24,-0.46,0.55,7.55,7554
16:38:07.831,76050,-0.31,-0.45,0.51,7.51,7555
16:38:07.834,76060,-0.41,-0.57,0.51,8.69,7556
16:38:07.844,76070,-0.52,-0.60,0.44,9.07,7557
16:38:07.853,76080,-0.59,-0.59,0.34,9.04,7558
16:38:07.866,76090,-0.61,-0.58,0.36,9.22,7559
16:38:07.876,76100,-0.68,-0.63,0.44,10.25,7560
16:38:07.888,76110,-0.70,-0.69,0.46,10.88,7561
16:38:07.894,76120,-0.81,-0.76,0.48,12.12,7562
16:38:07.905,76130,-0.94,-0.66,0.29,11.80,7563
16:38:07.916,76140,-0.67,-0.31,-0.14,7.55,7564
16:38:07.929,76150,-0.89,0.08,-0.42,9.91,7565
16:38:07.933,76160,-0.90,0.31,-0.47,10.62,7566
16:38:07.945,76170,-0.96,0.23,-0.63,11.73,7567
16:38:07.953,76180,-0.93,0.02,-0.83,12.42,7568
16:38:07.963,76190,-0.81,-0.22,-0.90,12.26,7569
16:38:07.974,76200,-0.65,-0.36,-0.53,9.14,7570
16:38:07.984,76210,-0.59,-0.51,-0.28,8.32,7571
16:38:07.995,76220,-0.53,-0.69,-0.15,8.79,7572
16:38:08.006,76230,-0.90,-0.96,-0.18,13.32,7573
16:38:08.014,76240,-1.53,-0.90,0.14,17.85,7574
16:38:08.025,76250,-2.04,-0.56,0.43,21.56,7575
16:38:08.034,76260,-1.99,-0.10,0.25,20.10,7576
16:38:08.044,76270,-1.56,0.49,-0.10,16.39,7577
16:38:08.058,76280,-1.33,0.53,0.02,14.31,7578
16:38:08.064,76290,-0.96,-0.42,0.38,11.15,7579
16:38:08.079,76300,-0.58,-0.70,0.44,10.09,7580
16:38:08.085,76310,-0.51,-0.92,0.17,10.71,7581
16:38:08.093,76320,-0.23,-1.07,0.08,10.98,7582
16:38:08.108,76330,-0.19,-1.24,0.16,12.60,7583
16:38:08.115,76340,-0.55,-0.90,0.39,11.20,7584
16:38:08.124,76350,-0.82,-0.59,0.49,11.24,7585
16:38:08.141,76360,-0.96,-0.33,0.54,11.53,7586
16:38:08.145,76370,-1.11,-0.19,0.47,12.21,7587
16:38:08.154,76380,-1.11,-0.15,0.32,11.65,7588
16:38:08.164,76390,-0.86,-0.59,0.22,10.63,7589
16:38:08.176,76400,-0.66,-0.94,0.13,11.53,7590
16:38:08.186,76410,-0.57,-1.01,0.05,11.64,7591
16:38:08.198,76420,-0.47,-1.07,-0.04,11.69,7592
16:38:08.203,76430,-0.47,-0.99,-0.04,10.94,7593
16:38:08.216,76440,-0.61,-0.86,0.09,10.56,7594
16:38:08.224,76450,-0.72,-0.79,0.13,10.81,7595
16:38:08.235,76460,-0.85,-0.67,0.16,10.96,7596
16:38:08.245,76470,-0.99,-0.51,0.27,11.50,7597
16:38:08.288,76480,-1.07,-0.35,0.34,11.75,7598
16:38:08.288,76490,-0.99,-0.25,0.40,11.00,7599
16:38:08.289,76500,-0.83,-0.43,0.29,9.84,7600
16:38:08.291,76510,-0.75,-0.67,0.15,10.22,7601
16:38:08.453,76520,-0.71,-0.81,0.08,10.79,7602
16:38:08.455,76530,-0.67,-0.93,0.02,11.49,7603
16:38:08.456,76540,-0.59,-1.02,0.04,11.76,7604
16:38:08.478,76550,-0.64,-0.86,0.03,10.71,7605
16:38:08.478,76560,-0.70,-0.74,0.07,10.18,7606
16:38:08.479,76570,-0.79,-0.61,0.05,9.98,7607
16:38:08.480,76580,-0.86,-0.48,0.04,9.87,7608
16:38:08.483,76590,-0.88,-0.47,0.06,10.01,7609
16:38:08.483,76600,-0.86,-0.53,-0.04,10.09,7610
16:38:08.483,76610,-0.81,-0.59,-0.08,10.02,7611
16:38:08.483,76620,-0.80,-0.62,-0.15,10.21,7612
16:38:08.483,76630,-0.80,-0.64,-0.16,10.35,7613
16:38:08.483,76640,-0.85,-0.59,-0.11,10.42,7614
16:38:08.483,76650,-0.90,-0.54,-0.06,10.52,7615
16:38:08.483,76660,-0.90,-0.53,-0.04,10.43,7616
16:38:08.483,76670,-0.87,-0.53,-0.03,10.20,7617
16:38:08.483,76680,-0.84,-0.55,-0.03,10.04,7618
16:38:08.485,76690,-0.85,-0.53,-0.04,10.04,7619
16:38:08.485,76700,-0.89,-0.51,-0.01,10.30,7620
16:38:08.485,76710,-0.89,-0.54,0.02,10.45,7621
16:38:08.497,76720,-0.83,-0.63,-0.00,10.37,7622
16:38:08.506,76730,-0.74,-0.72,-0.09,10.36,7623
16:38:08.515,76740,-0.68,-0.75,-0.05,10.15,7624
16:38:08.529,76750,-0.77,-0.63,0.05,9.95,7625
16:38:08.546,76760,-0.88,-0.49,0.11,10.16,7626
16:38:08.547,76770,-0.95,-0.40,0.30,10.73,7627
16:38:08.568,76780,-0.93,-0.39,0.26,10.45,7628
16:38:08.569,76790,-0.78,-0.55,0.22,9.79,7629
16:38:08.596,76800,-0.71,-0.58,0.11,9.19,7630
16:38:08.596,76810,-0.74,-0.58,0.13,9.53,7631
16:38:08.597,76820,-0.80,-0.64,0.15,10.36,7632
16:38:08.605,76830,-0.80,-0.64,0.14,10.34,7633
16:38:08.619,76840,-0.77,-0.64,0.15,10.09,7634
16:38:08.623,76850,-0.81,-0.61,0.17,10.24,7635
16:38:08.635,76860,-0.91,-0.53,0.20,10.75,7636
16:38:08.663,76870,-0.94,-0.52,0.20,10.94,7637
16:38:08.663,76880,-0.92,-0.52,0.13,10.68,7638
16:38:08.665,76890,-0.92,-0.49,0.04,10.40,7639
16:38:08.683,76900,-0.96,-0.47,0.01,10.67,7640
16:38:08.691,76910,-1.02,-0.43,-0.01,11.10,7641
16:38:08.694,76920,-1.10,-0.37,-0.09,11.63,7642
16:38:08.705,76930,-1.18,-0.33,-0.15,12.30,7643
16:38:08.714,76940,-1.33,-0.23,-0.06,13.51,7644
16:38:08.730,76950,-1.51,-0.30,-0.22,15.55,7645
16:38:08.733,76960,-1.65,-0.58,-0.16,17.56,7646
16:38:08.749,76970,-1.90,-0.62,-0.10,20.02,7647
16:38:08.753,76980,-1.77,-0.45,-0.16,18.31,7648
16:38:08.764,76990,-1.52,-0.58,-0.21,16.40,7649
16:38:08.774,77000,-1.27,-0.94,-0.12,15.87,7650
16:38:08.783,77010,-1.08,-1.15,0.26,15.95,7651
16:38:08.793,77020,-0.86,-1.49,0.32,17.44,7652
16:38:08.803,77030,-0.60,-1.44,0.42,16.12,7653
16:38:08.813,77040,-0.51,-1.51,0.79,17.82,7654
16:38:08.824,77050,-0.31,-1.46,0.88,17.32,7655
16:38:08.836,77060,-0.18,-1.41,1.02,17.53,7656
16:38:08.845,77070,-0.38,-1.19,0.89,15.35,7657
16:38:08.855,77080,-0.32,-1.05,0.98,14.72,7658
16:38:08.868,77090,-0.05,-0.90,1.26,15.48,7659
16:38:08.873,77100,0.05,-0.67,1.23,13.99,7660
16:38:08.884,77110,0.01,-0.44,1.05,11.33,7661
16:38:08.893,77120,-0.09,-0.23,0.84,8.71,7662
16:38:08.905,77130,-0.23,-0.19,0.65,7.15,7663
16:38:08.922,77140,-0.35,-0.37,0.50,7.15,7664
16:38:08.923,77150,-0.37,-0.60,0.42,8.27,7665
16:38:08.934,77160,-0.15,-0.73,0.57,9.37,7666
16:38:08.945,77170,-0.01,-0.84,0.56,10.04,7667
16:38:08.955,77180,0.12,-0.81,0.53,9.79,7668
16:38:08.963,77190,0.18,-0.69,0.57,9.15,7669
16:38:08.977,77200,0.09,-0.48,0.59,7.64,7670
16:38:08.986,77210,-0.04,-0.40,0.61,7.30,7671
16:38:08.996,77220,-0.12,-0.30,0.67,7.44,7672
16:38:09.005,77230,-0.16,-0.29,0.71,7.87,7673
16:38:09.014,77240,-0.20,-0.28,0.76,8.32,7674
16:38:09.029,77250,-0.19,-0.27,0.74,8.06,7675
16:38:09.034,77260,-0.14,-0.32,0.64,7.32,7676
16:38:09.045,77270,-0.16,-0.36,0.56,6.83,7677
16:38:09.055,77280,-0.19,-0.41,0.58,7.33,7678
16:38:09.087,77290,-0.29,-0.49,0.58,8.13,7679
16:38:09.088,77300,-0.33,-0.55,0.60,8.79,7680
16:38:09.089,77310,-0.30,-0.57,0.59,8.77,7681
16:38:09.121,77320,-0.23,-0.60,0.59,8.70,7682
16:38:09.122,77330,-0.20,-0.60,0.56,8.50,7683
16:38:09.123,77340,-0.26,-0.51,0.44,7.21,7684
16:38:09.124,77350,-0.39,-0.55,0.44,8.03,7685
16:38:09.162,77360,-0.49,-0.61,0.50,9.27,7686
16:38:09.163,77370,-0.57,-0.65,0.54,10.23,7687
16:38:09.164,77380,-0.66,-0.64,0.47,10.37,7688
16:38:09.165,77390,-0.64,-0.60,0.38,9.57,7689
16:38:09.204,77400,-0.72,-0.51,0.43,9.84,7690
16:38:09.204,77410,-0.84,-0.45,0.42,10.40,7691
16:38:09.206,77420,-0.84,-0.45,0.38,10.25,7692
16:38:09.206,77430,-0.77,-0.56,0.40,10.34,7693
16:38:09.246,77440,-0.82,-0.44,0.08,9.34,7694
16:38:09.246,77450,-0.78,-0.31,-0.16,8.58,7695
16:38:09.247,77460,-0.86,-0.17,-0.25,9.12,7696
16:38:09.248,77470,-0.93,-0.08,-0.32,9.87,7697
16:38:09.285,77480,-0.99,0.04,-0.51,11.17,7698
16:38:09.286,77490,-0.83,-0.10,-0.71,10.97,7699
16:38:09.288,77500,-1.11,0.39,-1.05,15.78,7700
16:38:09.289,77510,-0.73,0.03,-0.95,11.97,7701
16:38:09.300,77520,-0.64,-0.26,-0.57,9.02,7702
16:38:09.303,77530,-0.56,-0.47,-0.36,8.19,7703
16:38:09.318,77540,-0.49,-0.59,-0.22,8.02,7704
16:38:09.323,77550,-0.63,-0.65,-0.04,9.11,7705
16:38:09.334,77560,-0.79,-0.82,-0.01,11.37,7706
16:38:09.345,77570,-0.98,-0.94,0.09,13.64,7707
16:38:09.353,77580,-1.21,-0.81,0.12,14.63,7708
16:38:09.364,77590,-1.36,-0.65,0.02,15.06,7709
16:38:09.375,77600,-1.45,-0.33,-0.19,14.95,7710
16:38:09.384,77610,-1.62,0.02,-0.18,16.33,7711
16:38:09.395,77620,-1.73,0.08,-0.05,17.34,7712
16:38:09.405,77630,-1.45,-0.08,0.22,14.64,7713
16:38:09.420,77640,-1.10,-0.37,0.08,11.61,7714
16:38:09.424,77650,-0.75,-0.63,-0.09,9.86,7715
16:38:09.437,77660,-0.59,-0.72,-0.18,9.49,7716
16:38:09.444,77670,-0.48,-1.12,0.24,12.44,7717
16:38:09.455,77680,-0.50,-0.95,0.33,11.21,7718
16:38:09.464,77690,-0.66,-0.67,0.57,11.06,7719
16:38:09.475,77700,-0.73,-0.56,0.50,10.44,7720
16:38:09.486,77710,-0.85,-0.38,0.58,10.96,7721
16:38:09.495,77720,-1.06,-0.26,0.56,12.27,7722
16:38:09.504,77730,-1.07,-0.28,0.50,12.17,7723
16:38:09.513,77740,-0.85,-0.62,0.33,11.04,7724
16:38:09.529,77750,-0.66,-0.94,0.20,11.65,7725
16:38:09.534,77760,-0.51,-1.21,-0.09,13.12,7726
16:38:09.545,77770,-0.40,-1.29,-0.24,13.75,7727
16:38:09.557,77780,-0.44,-0.72,0.01,8.48,7728
16:38:09.565,77790,-0.75,-0.87,0.34,11.95,7729
16:38:09.583,77800,-0.80,-0.73,0.12,10.90,7730
16:38:09.584,77810,-0.85,-0.61,0.17,10.58,7731
16:38:09.596,77820,-0.89,-0.60,0.15,10.88,7732
16:38:09.609,77830,-0.90,-0.52,0.18,10.58,7733
16:38:09.614,77840,-0.90,-0.50,0.18,10.48,7734
16:38:09.632,77850,-0.86,-0.54,0.19,10.32,7735
16:38:09.634,77860,-0.79,-0.62,0.17,10.16,7736
16:38:09.731,77870,-0.77,-0.63,0.12,10.05,7737
16:38:09.732,77880,-0.77,-0.62,0.08,9.90,7738
16:38:09.732,77890,-0.75,-0.64,0.04,9.93,7739
16:38:09.733,77900,-0.75,-0.66,0.02,10.02,7740
16:38:09.734,77910,-0.76,-0.66,0.01,10.01,7741
16:38:09.734,77920,-0.77,-0.63,-0.02,9.96,7742
16:38:09.735,77930,-0.80,-0.60,-0.05,9.98,7743
16:38:09.737,77940,-0.79,-0.61,-0.02,9.95,7744
16:38:09.742,77950,-0.80,-0.62,0.00,10.10,7745
16:38:09.742,77960,-0.82,-0.60,0.00,10.16,7746
16:38:09.747,77970,-0.85,-0.57,0.04,10.21,7747
16:38:09.757,77980,-0.87,-0.53,0.05,10.25,7748
16:38:09.768,77990,-0.84,-0.55,0.05,10.06,7749
16:38:09.774,78000,-0.81,-0.59,0.04,10.03,7750
16:38:09.783,78010,-0.78,-0.64,0.04,10.09,7751
16:38:09.824,78020,-0.77,-0.68,0.03,10.22,7752
16:38:09.826,78030,-0.78,-0.66,0.04,10.26,7753
16:38:09.827,78040,-0.77,-0.62,0.10,9.95,7754
16:38:09.828,78050,-0.80,-0.61,0.14,10.16,7755
16:38:09.857,78060,-0.80,-0.59,0.19,10.11,7756
16:38:09.893,78070,-0.79,-0.58,0.19,9.96,7757
16:38:09.937,78080,-0.80,-0.54,0.13,9.78,7758
16:38:09.939,78090,-0.86,-0.50,0.09,9.96,7759
16:38:09.974,78100,-0.90,-0.48,0.07,10.27,7760
16:38:09.975,78110,-0.83,-0.55,0.06,9.98,7761
16:38:09.977,78120,-0.73,-0.68,0.05,9.93,7762
16:38:09.978,78130,-0.72,-0.67,-0.01,9.87,7763
16:38:09.980,78140,-0.74,-0.63,-0.00,9.77,7764
16:38:09.980,78150,-0.80,-0.58,0.05,9.95,7765
16:38:09.980,78160,-0.84,-0.55,0.04,10.10,7766
16:38:09.980,78170,-0.85,-0.56,-0.05,10.17,7767
16:38:09.980,78180,-0.85,-0.57,-0.09,10.26,7768
16:38:09.980,78190,-0.86,-0.53,-0.08,10.14,7769
16:38:09.980,78200,-0.89,-0.49,-0.03,10.19,7770
16:38:10.017,78210,-0.98,-0.46,0.04,10.81,7771
16:38:10.018,78220,-1.09,-0.41,0.09,11.73,7772
16:38:10.019,78230,-1.19,-0.33,0.12,12.39,7773
16:38:10.020,78240,-1.32,-0.39,0.13,13.79,7774
16:38:10.049,78250,-1.39,-0.55,0.13,15.02,7775
16:38:10.049,78260,-1.50,-0.65,0.20,16.47,7776
16:38:10.050,78270,-1.71,-0.52,0.15,17.95,7777
16:38:10.054,78280,-1.79,-0.38,-0.08,18.33,7778
16:38:10.063,78290,-1.79,-0.38,-0.24,18.48,7779
16:38:10.079,78300,-1.83,-0.45,-0.22,19.01,7780
16:38:10.083,78310,-1.88,-0.56,0.04,19.65,7781
16:38:10.093,78320,-1.60,-0.61,0.07,17.13,7782
16:38:10.108,78330,-1.06,-0.85,-0.04,13.56,7783
16:38:10.116,78340,-0.75,-1.06,0.25,13.23,7784
16:38:10.128,78350,-0.59,-1.35,0.69,16.28,7785
16:38:10.133,78360,-0.38,-1.34,0.91,16.62,7786
16:38:10.150,78370,-0.52,-1.42,0.96,17.91,7787
16:38:10.154,78380,-0.52,-1.42,0.96,17.87,7788
16:38:10.172,78390,-0.28,-1.23,1.08,16.61,7789
16:38:10.173,78400,-0.09,-0.88,1.12,14.29,7790
16:38:10.184,78410,-0.04,-0.58,1.06,12.10,7791
16:38:10.194,78420,-0.15,-0.36,0.93,10.04,7792
16:38:10.205,78430,-0.28,-0.22,0.76,8.43,7793
16:38:10.214,78440,-0.42,-0.26,0.73,8.77,7794
16:38:10.223,78450,-0.42,-0.60,0.65,9.76,7795
16:38:10.240,78460,-0.31,-0.85,0.52,10.49,7796
16:38:10.248,78470,-0.13,-1.00,0.54,11.46,7797
16:38:10.254,78480,0.09,-0.94,0.57,11.03,7798
16:38:10.264,78490,0.24,-0.89,0.55,10.72,7799
16:38:10.280,78500,0.19,-0.67,0.55,8.88,7800
16:38:10.288,78510,0.02,-0.51,0.59,7.82,7801
16:38:10.297,78520,-0.10,-0.42,0.66,7.87,7802
16:38:10.306,78530,-0.16,-0.35,0.68,7.82,7803
16:38:10.313,78540,-0.14,-0.32,0.71,7.88,7804
16:38:10.323,78550,-0.09,-0.31,0.69,7.65,7805
16:38:10.335,78560,0.00,-0.34,0.69,7.74,7806
16:38:10.344,78570,0.03,-0.37,0.66,7.59,7807
16:38:10.355,78580,-0.06,-0.35,0.64,7.34,7808
16:38:10.369,78590,-0.27,-0.36,0.62,7.62,7809
16:38:10.373,78600,-0.39,-0.32,0.65,8.23,7810
16:38:10.389,78610,-0.43,-0.26,0.59,7.79,7811
16:38:10.394,78620,-0.33,-0.30,0.49,6.66,7812
16:38:10.412,78630,-0.25,-0.34,0.53,6.75,7813
16:38:10.414,78640,-0.34,-0.48,0.57,8.15,7814
16:38:10.423,78650,-0.43,-0.60,0.60,9.47,7815
16:38:10.434,78660,-0.53,-0.71,0.57,10.48,7816
16:38:10.447,78670,-0.53,-0.78,0.56,10.95,7817
16:38:10.454,78680,-0.55,-0.70,0.43,9.83,7818
16:38:10.470,78690,-0.56,-0.63,0.31,8.99,7819
16:38:10.473,78700,-0.64,-0.51,0.27,8.60,7820
16:38:10.484,78710,-0.77,-0.45,0.28,9.31,7821
16:38:10.498,78720,-0.83,-0.51,0.33,10.27,7822
16:38:10.504,78730,-0.80,-0.65,0.39,11.02,7823
16:38:10.539,78740,-0.86,-0.55,0.10,10.26,7824
16:38:10.540,78750,-0.80,-0.19,-0.18,8.43,7825
16:38:10.541,78760,-0.94,-0.01,-0.48,10.53,7826
16:38:10.545,78770,-0.86,0.09,-0.59,10.47,7827
16:38:10.582,78780,-0.94,0.26,-0.92,13.47,7828
16:38:10.584,78790,-0.79,0.01,-1.14,13.81,7829
16:38:10.584,78800,-0.65,-0.20,-1.16,13.48,7830
16:38:10.585,78810,-0.46,-0.36,-0.66,8.83,7831
16:38:10.623,78820,-0.45,-0.62,-0.39,8.66,7832
16:38:10.623,78830,-0.33,-0.57,-0.11,6.65,7833
16:38:10.625,78840,-0.59,-0.72,-0.03,9.36,7834
16:38:10.625,78850,-0.68,-0.73,0.14,10.04,7835
16:38:10.655,78860,-0.99,-0.80,0.15,12.83,7836
16:38:10.657,78870,-1.46,-0.65,0.20,16.10,7837
16:38:10.658,78880,-1.83,-0.35,0.14,18.71,7838
16:38:10.689,78890,-1.78,0.04,0.06,17.77,7839
16:38:10.690,78900,-1.79,0.32,-0.10,18.24,7840
16:38:10.691,78910,-1.71,0.32,-0.04,17.41,7841
16:38:10.692,78920,-1.38,-0.25,0.03,14.02,7842
16:38:10.734,78930,-0.92,-0.84,0.03,12.44,7843
16:38:10.734,78940,-0.54,-0.84,0.20,10.17,7844
16:38:10.734,78950,-0.17,-0.97,0.58,11.47,7845
16:38:10.735,78960,-0.15,-1.07,0.30,11.24,7846
16:38:10.747,78970,-0.30,-0.90,0.51,10.79,7847
16:38:10.757,78980,-0.55,-0.74,0.64,11.20,7848
16:38:10.766,78990,-0.76,-0.56,0.66,11.51,7849
16:38:10.775,79000,-1.00,-0.34,0.64,12.37,7850
16:38:10.786,79010,-1.16,-0.20,0.56,13.04,7851
16:38:10.797,79020,-0.99,-0.28,0.51,11.51,7852
16:38:10.805,79030,-0.72,-0.70,0.32,10.58,7853
16:38:10.816,79040,-0.60,-0.85,0.13,10.48,7854
16:38:10.825,79050,-0.53,-0.86,0.01,10.12,7855
16:38:10.835,79060,-0.60,-0.81,-0.01,10.07,7856
16:38:10.848,79070,-0.70,-0.75,0.10,10.27,7857
16:38:10.853,79080,-0.72,-0.74,0.16,10.44,7858
16:38:10.868,79090,-0.74,-0.72,0.19,10.50,7859
16:38:10.875,79100,-0.77,-0.69,0.22,10.63,7860
16:38:10.885,79110,-0.81,-0.62,0.24,10.43,7861
16:38:10.893,79120,-0.82,-0.61,0.23,10.47,7862
16:38:10.903,79130,-0.79,-0.65,0.22,10.46,7863
16:38:10.916,79140,-0.78,-0.67,0.23,10.51,7864
16:38:10.925,79150,-0.77,-0.65,0.20,10.30,7865
16:38:10.935,79160,-0.74,-0.69,0.16,10.27,7866
16:38:10.943,79170,-0.72,-0.73,0.10,10.24,7867
16:38:10.955,79180,-0.70,-0.77,0.03,10.36,7868
16:38:10.964,79190,-0.69,-0.76,0.02,10.33,7869
16:38:11.042,79200,-0.69,-0.75,0.05,10.16,7870
16:38:11.042,79210,-0.72,-0.70,0.07,10.10,7871
16:38:11.073,79220,-0.77,-0.60,0.09,9.85,7872
16:38:11.073,79230,-0.85,-0.52,0.13,10.06,7873
16:38:11.073,79240,-0.92,-0.48,0.18,10.55,7874
16:38:11.076,79250,-0.95,-0.46,0.21,10.79,7875
16:38:11.076,79260,-0.85,-0.51,0.18,10.10,7876
16:38:11.081,79270,-0.74,-0.60,0.09,9.59,7877
16:38:11.083,79280,-0.70,-0.68,0.07,9.78,7878
16:38:11.083,79290,-0.70,-0.73,0.05,10.08,7879
16:38:11.083,79300,-0.75,-0.69,0.04,10.25,7880
16:38:11.084,79310,-0.83,-0.64,0.07,10.50,7881
16:38:11.102,79320,-0.85,-0.57,0.10,10.30,7882
16:38:11.103,79330,-0.83,-0.55,0.12,10.05,7883
16:38:11.118,79340,-0.78,-0.57,0.12,9.71,7884
16:38:11.123,79350,-0.77,-0.58,0.08,9.65,7885
16:38:11.135,79360,-0.80,-0.55,0.03,9.72,7886
16:38:11.144,79370,-0.83,-0.54,0.03,9.93,7887
16:38:11.158,79380,-0.85,-0.54,0.02,10.09,7888
16:38:11.289,79390,-0.84,-0.55,0.03,10.05,7889
16:38:11.342,79400,-0.81,-0.58,0.06,10.00,7890
16:38:11.342,79410,-0.80,-0.60,0.07,10.04,7891
16:38:11.343,79420,-0.77,-0.64,0.04,10.07,7892
16:38:11.344,79430,-0.76,-0.66,0.04,10.05,7893
16:38:11.345,79440,-0.76,-0.66,0.05,10.08,7894
16:38:11.381,79450,-0.80,-0.64,0.06,10.24,7895
16:38:11.381,79460,-0.88,-0.57,0.07,10.54,7896
16:38:11.384,79470,-0.94,-0.50,0.07,10.64,7897
16:38:11.387,79480,-0.92,-0.50,0.03,10.49,7898
16:38:11.387,79490,-0.90,-0.52,-0.04,10.40,7899
16:38:11.387,79500,-0.95,-0.51,-0.08,10.82,7900
16:38:11.387,79510,-1.04,-0.52,-0.06,11.60,7901
16:38:11.387,79520,-1.04,-0.51,0.09,11.63,7902
16:38:11.387,79530,-1.09,-0.49,0.25,12.19,7903
16:38:11.387,79540,-1.19,-0.50,0.25,13.16,7904
16:38:11.387,79550,-1.30,-0.64,0.27,14.70,7905
16:38:11.387,79560,-1.55,-0.65,0.21,16.90,7906
16:38:11.387,79570,-1.61,-0.55,0.07,16.99,7907
16:38:11.390,79580,-1.72,-0.45,-0.15,17.85,7908
16:38:11.390,79590,-1.79,-0.47,-0.40,18.92,7909
16:38:11.390,79600,-1.58,-0.68,-0.22,17.39,7910
16:38:11.390,79610,-1.40,-0.90,0.11,16.69,7911
16:38:11.413,79620,-1.13,-1.02,0.19,15.34,7912
16:38:11.413,79630,-0.77,-1.06,0.31,13.48,7913
16:38:11.417,79640,-0.58,-1.14,0.48,13.66,7914
16:38:11.426,79650,-0.52,-1.32,0.80,16.26,7915
16:38:11.433,79660,-0.49,-1.34,0.91,16.94,7916
16:38:11.453,79670,-0.59,-1.27,0.93,16.83,7917
16:38:11.453,79680,-0.56,-1.07,0.83,14.69,7918
16:38:11.468,79690,-0.30,-0.88,0.99,13.64,7919
16:38:11.474,79700,-0.01,-0.78,1.28,14.95,7920
16:38:11.484,79710,0.08,-0.60,1.30,14.35,7921
16:38:11.495,79720,-0.07,-0.33,0.98,10.35,7922
16:38:11.504,79730,-0.25,-0.16,0.65,7.18,7923
16:38:11.522,79740,-0.38,-0.29,0.60,7.63,7924
16:38:11.523,79750,-0.48,-0.61,0.54,9.44,7925
16:38:11.534,79760,-0.31,-0.77,0.68,10.72,7926
16:38:11.545,79770,-0.07,-0.81,0.65,10.40,7927
16:38:11.553,79780,0.09,-0.80,0.53,9.59,7928
16:38:11.574,79790,0.24,-0.69,0.55,9.14,7929
16:38:11.574,79800,0.11,-0.54,0.56,7.80,7930
16:38:11.589,79810,-0.06,-0.40,0.59,7.18,7931
16:38:11.594,79820,-0.15,-0.35,0.69,7.89,7932
16:38:11.607,79830,-0.24,-0.36,0.72,8.35,7933
16:38:11.617,79840,-0.28,-0.36,0.75,8.79,7934
16:38:11.626,79850,-0.25,-0.28,0.74,8.26,7935
16:38:11.636,79860,-0.18,-0.25,0.64,7.05,7936
16:38:11.643,79870,-0.12,-0.34,0.62,7.17,7937
16:38:11.654,79880,-0.18,-0.34,0.62,7.28,7938
16:38:11.666,79890,-0.25,-0.34,0.67,7.86,7939
16:38:11.676,79900,-0.26,-0.38,0.68,8.17,7940
16:38:11.684,79910,-0.21,-0.47,0.57,7.63,7941
16:38:11.693,79920,-0.16,-0.55,0.52,7.78,7942
16:38:11.703,79930,-0.12,-0.57,0.45,7.36,7943
16:38:11.715,79940,-0.20,-0.63,0.42,7.80,7944
16:38:11.725,79950,-0.31,-0.69,0.48,8.99,7945
16:38:11.737,79960,-0.46,-0.69,0.54,9.94,7946
16:38:11.744,79970,-0.63,-0.70,0.54,10.85,7947
16:38:11.760,79980,-0.66,-0.64,0.43,10.17,7948
16:38:11.764,79990,-0.64,-0.52,0.29,8.75,7949
16:38:11.780,80000,-0.73,-0.39,0.24,8.66,7950
16:38:11.784,80010,-0.85,-0.46,0.38,10.39,7951
16:38:11.795,80020,-0.82,-0.54,0.45,10.74,7952
16:38:11.809,80030,-0.78,-0.52,0.14,9.53,7953
16:38:11.813,80040,-0.74,-0.28,-0.20,8.12,7954
16:38:11.827,80050,-0.74,-0.05,-0.41,8.54,7955
16:38:11.834,80060,-0.86,0.10,-0.54,10.23,7956
16:38:11.843,80070,-0.83,0.13,-0.69,10.91,7957
16:38:11.853,80080,-1.05,0.37,-0.84,13.97,7958
16:38:11.870,80090,-0.81,0.13,-0.79,11.40,7959
16:38:11.875,80100,-0.64,-0.16,-0.46,8.02,7960
16:38:11.888,80110,-0.67,-0.50,-0.26,8.71,7961
16:38:11.893,80120,-0.56,-0.82,-0.13,10.00,7962
16:38:11.903,80130,-0.41,-0.93,-0.14,10.30,7963
16:38:11.913,80140,-0.72,-0.98,-0.08,12.24,7964
16:38:11.926,80150,-1.33,-0.85,0.06,15.81,7965
16:38:11.936,80160,-1.93,-0.60,0.31,20.46,7966
16:38:11.944,80170,-2.13,-0.11,0.29,21.47,7967
16:38:11.953,80180,-1.97,0.35,0.03,19.97,7968
16:38:12.009,80190,-1.56,0.74,-0.06,17.28,7969
16:38:12.010,80200,-1.08,0.17,0.08,10.99,7970
16:38:12.010,80210,-0.74,-0.92,-0.07,11.82,7971
16:38:12.012,80220,-0.59,-0.82,0.23,10.38,7972
16:38:12.013,80230,-0.22,-1.06,0.35,11.39,7973
16:38:12.014,80240,-0.22,-1.45,0.31,15.01,7974
16:38:12.049,80250,-0.13,-1.33,0.21,13.54,7975
16:38:12.050,80260,-0.40,-0.74,0.44,9.45,7976
16:38:12.051,80270,-0.69,-0.52,0.61,10.59,7977
16:38:12.053,80280,-1.02,-0.32,0.70,12.80,7978
16:38:12.082,80290,-1.28,-0.11,0.70,14.58,7979
16:38:12.083,80300,-1.25,-0.05,0.57,13.79,7980
16:38:12.084,80310,-0.91,-0.35,0.43,10.63,7981
16:38:12.124,80320,-0.63,-0.77,0.28,10.34,7982
16:38:12.126,80330,-0.46,-1.03,0.08,11.34,7983
16:38:12.126,80340,-0.39,-1.15,-0.11,12.22,7984
16:38:12.127,80350,-0.34,-1.27,-0.15,13.22,7985
16:38:12.166,80360,-0.40,-1.17,-0.03,12.32,7986
16:38:12.166,80370,-0.59,-0.93,0.10,11.08,7987
16:38:12.167,80380,-0.74,-0.77,0.23,10.97,7988
16:38:12.168,80390,-0.95,-0.56,0.31,11.51,7989
16:38:12.197,80400,-1.06,-0.38,0.35,11.77,7990
16:38:12.197,80410,-1.02,-0.24,0.44,11.38,7991
16:38:12.200,80420,-0.90,-0.33,0.42,10.44,7992
16:38:12.203,80430,-0.74,-0.63,0.24,10.00,7993
16:38:12.214,80440,-0.66,-0.78,0.14,10.31,7994
16:38:12.229,80450,-0.64,-0.90,0.06,11.00,7995
16:38:12.234,80460,-0.61,-0.93,0.01,11.09,7996
16:38:12.245,80470,-0.66,-0.82,-0.03,10.55,7997
16:38:12.263,80480,-0.74,-0.71,0.03,10.24,7998
16:38:12.265,80490,-0.81,-0.59,0.08,10.07,7999
16:38:12.275,80500,-0.89,-0.48,0.12,10.15,8000
16:38:12.290,80510,-0.91,-0.44,0.17,10.23,8001
16:38:12.294,80520,-0.88,-0.48,0.15,10.16,8002
16:38:12.303,80530,-0.85,-0.51,0.09,9.95,8003
16:38:12.401,80540,-0.83,-0.56,0.09,10.07,8004
16:38:12.402,80550,-0.80,-0.60,0.09,10.04,8005
16:38:12.402,80560,-0.80,-0.59,0.11,9.96,8006
16:38:12.403,80570,-0.80,-0.56,0.12,9.86,8007
16:38:12.404,80580,-0.80,-0.57,0.13,9.87,8008
16:38:12.406,80590,-0.80,-0.58,0.15,9.96,8009
16:38:12.407,80600,-0.82,-0.56,0.12,10.05,8010
16:38:12.410,80610,-0.85,-0.56,0.09,10.21,8011
16:38:12.412,80620,-0.88,-0.55,0.06,10.35,8012
16:38:12.412,80630,-0.90,-0.52,0.03,10.45,8013
16:38:12.413,80640,-0.89,-0.50,0.02,10.27,8014
16:38:12.423,80650,-0.89,-0.51,0.01,10.25,8015
16:38:12.434,80660,-0.89,-0.52,-0.02,10.29,8016
16:38:12.443,80670,-0.85,-0.58,-0.03,10.34,8017
16:38:12.460,80680,-0.86,-0.54,0.01,10.13,8018
16:38:12.464,80690,-0.91,-0.54,0.02,10.60,8019
16:38:12.473,80700,-0.97,-0.50,0.10,11.03,8020
16:38:12.502,80710,-0.96,-0.53,0.16,11.06,8021
16:38:12.503,80720,-0.86,-0.59,0.06,10.46,8022
16:38:12.504,80730,-0.80,-0.60,-0.01,9.95,8023
16:38:12.513,80740,-0.79,-0.59,0.01,9.84,8024
16:38:12.524,80750,-0.88,-0.55,0.07,10.39,8025
16:38:12.540,80760,-0.99,-0.50,0.10,11.18,8026
16:38:12.543,80770,-1.12,-0.41,0.10,11.97,8027
16:38:12.555,80780,-1.21,-0.36,0.05,12.69,8028
16:38:12.573,80790,-1.32,-0.36,0.00,13.68,8029
16:38:12.574,80800,-1.45,-0.71,-0.14,16.15,8030
16:38:12.608,80810,-1.70,-0.75,-0.25,18.69,8031
16:38:12.610,80820,-1.79,-0.59,-0.44,19.35,8032
16:38:12.610,80830,-1.74,-0.45,-0.43,18.51,8033
16:38:12.629,80840,-1.59,-0.56,-0.45,17.47,8034
16:38:12.630,80850,-1.50,-0.85,-0.25,17.44,8035
16:38:12.657,80860,-1.35,-1.11,-0.01,17.43,8036
16:38:12.658,80870,-1.06,-1.24,0.17,16.44,8037
16:38:12.660,80880,-0.82,-1.30,0.26,15.63,8038
16:38:12.664,80890,-0.70,-1.34,0.46,15.79,8039
16:38:12.673,80900,-0.61,-1.40,0.83,17.40,8040
16:38:12.684,80910,-0.55,-1.25,0.98,16.77,8041
16:38:12.694,80920,-0.58,-1.09,0.94,15.44,8042
16:38:12.711,80930,-0.36,-0.93,1.15,15.28,8043
16:38:12.720,80940,-0.04,-0.88,1.59,18.23,8044
16:38:12.723,80950,0.05,-0.72,1.59,17.48,8045
16:38:12.759,80960,-0.18,-0.42,1.18,12.61,8046
16:38:12.760,80970,-0.34,-0.19,0.91,9.92,8047
16:38:12.761,80980,-0.44,-0.14,0.74,8.72,8048
16:38:12.765,80990,-0.35,-0.41,0.63,8.30,8049
16:38:12.801,81000,-0.25,-0.65,0.45,8.28,8050
16:38:12.802,81010,-0.04,-0.86,0.63,10.67,8051
16:38:12.802,81020,0.17,-0.83,0.61,10.43,8052
16:38:12.803,81030,0.29,-0.80,0.51,9.91,8053
16:38:12.841,81040,0.34,-0.69,0.52,9.30,8054
16:38:12.843,81050,0.09,-0.53,0.58,7.94,8055
16:38:12.844,81060,-0.09,-0.45,0.64,7.87,8056
16:38:12.845,81070,-0.13,-0.38,0.69,7.99,8057
16:38:12.883,81080,-0.13,-0.32,0.75,8.20,8058
16:38:12.883,81090,-0.13,-0.29,0.78,8.40,8059
16:38:12.889,81100,-0.09,-0.28,0.79,8.46,8060
16:38:12.889,81110,-0.04,-0.26,0.70,7.50,8061
16:38:12.925,81120,-0.04,-0.31,0.65,7.20,8062
16:38:12.925,81130,-0.13,-0.34,0.66,7.50,8063
16:38:12.926,81140,-0.22,-0.36,0.65,7.76,8064
16:38:12.927,81150,-0.25,-0.43,0.61,7.83,8065
16:38:12.957,81160,-0.22,-0.48,0.57,7.80,8066
16:38:12.957,81170,-0.19,-0.46,0.50,7.08,8067
16:38:12.959,81180,-0.24,-0.53,0.50,7.67,8068
16:38:12.962,81190,-0.33,-0.65,0.54,9.10,8069
16:38:12.982,81200,-0.45,-0.70,0.56,10.07,8070
16:38:12.985,81210,-0.55,-0.76,0.63,11.26,8071
16:38:12.994,81220,-0.71,-0.75,0.55,11.70,8072
16:38:13.004,81230,-0.71,-0.65,0.46,10.61,8073
16:38:13.022,81240,-0.81,-0.55,0.37,10.42,8074
16:38:13.025,81250,-0.87,-0.42,0.42,10.54,8075
16:38:13.039,81260,-0.86,-0.31,0.33,9.78,8076
16:38:13.045,81270,-0.89,-0.12,0.01,8.94,8077
16:38:13.057,81280,-0.87,0.08,-0.26,9.12,8078
16:38:13.064,81290,-0.86,0.17,-0.62,10.73,8079
16:38:13.073,81300,-0.86,0.13,-1.01,13.35,8080
16:38:13.086,81310,-1.02,0.31,-1.34,17.10,8081
16:38:13.094,81320,-0.72,0.13,-0.92,11.74,8082
16:38:13.112,81330,-0.62,-0.06,-0.49,7.91,8083
16:38:13.113,81340,-0.60,-0.49,-0.17,7.89,8084
16:38:13.125,81350,-0.53,-0.84,-0.01,9.90,8085
16:38:13.133,81360,-0.37,-0.89,0.07,9.65,8086
16:38:13.144,81370,-0.56,-0.83,0.05,10.08,8087
16:38:13.162,81380,-1.28,-0.71,0.15,14.74,8088
16:38:13.167,81390,-1.95,-0.49,0.37,20.42,8089
16:38:13.178,81400,-2.13,-0.13,0.29,21.49,8090
16:38:13.186,81410,-1.88,0.25,0.15,19.02,8091
16:38:13.195,81420,-1.42,0.40,-0.06,14.82,8092
16:38:13.211,81430,-0.93,-0.48,-0.01,10.49,8093
16:38:13.214,81440,-0.65,-0.85,0.14,10.78,8094
16:38:13.229,81450,-0.42,-1.03,0.15,11.19,8095
16:38:13.233,81460,-0.32,-1.23,0.12,12.73,8096
16:38:13.244,81470,-0.26,-1.07,0.14,11.12,8097
16:38:13.259,81480,-0.50,-0.86,0.49,11.12,8098
16:38:13.265,81490,-0.69,-0.72,0.60,11.66,8099
16:38:13.274,81500,-0.84,-0.51,0.67,11.90,8100
16:38:13.287,81510,-1.04,-0.31,0.64,12.55,8101
16:38:13.296,81520,-1.10,-0.19,0.58,12.55,8102
16:38:13.305,81530,-0.88,-0.34,0.45,10.45,8103
16:38:13.316,81540,-0.70,-0.74,0.30,10.63,8104
16:38:13.323,81550,-0.57,-1.03,0.09,11.78,8105
16:38:13.336,81560,-0.49,-1.03,-0.03,11.41,8106
16:38:13.346,81570,-0.45,-1.02,-0.03,11.15,8107
16:38:13.361,81580,-0.57,-0.93,0.04,10.92,8108
16:38:13.363,81590,-0.66,-0.77,0.19,10.32,8109
16:38:13.373,81600,-0.71,-0.65,0.19,9.82,8110
16:38:13.390,81610,-0.82,-0.56,0.24,10.20,8111
16:38:13.394,81620,-0.88,-0.52,0.29,10.62,8112
16:38:13.404,81630,-0.95,-0.48,0.31,11.14,8113
16:38:13.421,81640,-0.95,-0.48,0.31,11.05,8114
16:38:13.423,81650,-0.86,-0.55,0.23,10.47,8115
16:38:13.438,81660,-0.80,-0.59,0.17,10.12,8116
16:38:13.443,81670,-0.77,-0.63,0.14,10.02,8117
16:38:13.453,81680,-0.78,-0.66,0.13,10.28,8118
16:38:13.506,81690,-0.76,-0.68,0.11,10.26,8119
16:38:13.506,81700,-0.74,-0.73,0.11,10.45,8120
16:38:13.507,81710,-0.71,-0.74,0.08,10.32,8121
16:38:13.508,81720,-0.71,-0.72,0.06,10.10,8122
16:38:13.509,81730,-0.72,-0.68,0.06,9.92,8123
16:38:13.546,81740,-0.79,-0.61,0.07,9.99,8124
16:38:13.546,81750,-0.87,-0.55,0.11,10.35,8125
16:38:13.549,81760,-0.91,-0.50,0.16,10.50,8126
16:38:13.550,81770,-0.86,-0.51,0.16,10.11,8127
16:38:13.589,81780,-0.80,-0.57,0.13,9.88,8128
16:38:13.589,81790,-0.76,-0.61,0.11,9.81,8129
16:38:13.590,81800,-0.76,-0.66,0.12,10.11,8130
16:38:13.590,81810,-0.76,-0.69,0.12,10.31,8131
16:38:13.593,81820,-0.77,-0.67,0.10,10.22,8132
16:38:13.630,81830,-0.78,-0.64,0.07,10.12,8133
16:38:13.631,81840,-0.82,-0.59,0.05,10.11,8134
16:38:13.631,81850,-0.87,-0.54,0.00,10.22,8135
16:38:13.633,81860,-0.90,-0.50,-0.05,10.33,8136
16:38:13.676,81870,-0.92,-0.47,-0.07,10.38,8137
16:38:13.685,81880,-0.94,-0.46,-0.10,10.52,8138
16:38:13.685,81890,-0.94,-0.46,-0.08,10.52,8139
16:38:13.700,81900,-0.89,-0.50,-0.10,10.26,8140
16:38:13.701,81910,-0.85,-0.56,-0.10,10.26,8141
16:38:13.706,81920,-0.85,-0.61,-0.04,10.42,8142
16:38:13.707,81930,-0.86,-0.66,-0.03,10.82,8143
16:38:13.713,81940,-0.81,-0.56,0.02,9.86,8144
16:38:13.723,81950,-0.82,-0.59,0.02,10.08,8145
16:38:13.738,81960,-0.86,-0.56,0.05,10.29,8146
16:38:13.744,81970,-0.90,-0.52,0.08,10.41,8147
16:38:13.756,81980,-0.93,-0.52,0.09,10.69,8148
16:38:13.782,81990,-0.93,-0.56,0.11,10.88,8149
16:38:13.783,82000,-0.98,-0.51,0.11,11.11,8150
16:38:13.785,82010,-1.07,-0.44,0.12,11.65,8151
16:38:13.802,82020,-1.16,-0.44,0.12,12.53,8152
16:38:13.805,82030,-1.24,-0.64,0.13,13.98,8153
16:38:13.817,82040,-1.52,-0.62,0.09,16.41,8154
16:38:13.828,82050,-1.67,-0.48,-0.07,17.44,8155
16:38:13.834,82060,-1.81,-0.22,-0.20,18.33,8156
16:38:13.845,82070,-1.83,-0.12,-0.34,18.67,8157
16:38:13.857,82080,-1.74,-0.43,-0.25,18.09,8158
16:38:13.866,82090,-1.61,-0.71,-0.05,17.62,8159
16:38:13.873,82100,-1.40,-0.89,0.02,16.56,8160
16:38:13.891,82110,-0.99,-1.06,0.11,14.58,8161
16:38:13.898,82120,-0.64,-1.22,0.27,14.03,8162
16:38:13.937,82130,-0.50,-1.35,0.55,15.41,8163
16:38:13.939,82140,-0.47,-1.46,0.76,17.10,8164
16:38:13.951,82150,-0.55,-1.43,0.81,17.34,8165
16:38:13.955,82160,-0.53,-1.22,0.81,15.56,8166
16:38:13.955,82170,-0.41,-0.86,0.88,12.90,8167
16:38:13.967,82180,-0.05,-0.87,1.50,17.40,8168
16:38:13.968,82190,-0.06,-0.53,1.42,15.12,8169
16:38:13.976,82200,-0.30,-0.33,1.07,11.61,8170
16:38:13.983,82210,-0.48,-0.15,0.85,9.91,8171
16:38:13.998,82220,-0.55,-0.16,0.75,9.43,8172
16:38:14.004,82230,-0.48,-0.43,0.63,9.06,8173
16:38:14.015,82240,-0.35,-0.67,0.61,9.70,8174
16:38:14.031,82250,-0.16,-0.85,0.61,10.54,8175
16:38:14.034,82260,0.04,-0.81,0.62,10.17,8176
16:38:14.045,82270,0.15,-0.77,0.54,9.55,8177
16:38:14.056,82280,0.13,-0.65,0.57,8.76,8178
16:38:14.074,82290,-0.02,-0.51,0.65,8.27,8179
16:38:14.074,82300,-0.16,-0.41,0.68,8.12,8180
16:38:14.090,82310,-0.22,-0.35,0.75,8.52,8181
16:38:14.097,82320,-0.18,-0.31,0.80,8.79,8182
16:38:14.107,82330,-0.07,-0.30,0.85,9.05,8183
16:38:14.122,82340,0.00,-0.36,0.77,8.52,8184
16:38:14.126,82350,0.03,-0.42,0.63,7.57,8185
16:38:14.139,82360,-0.01,-0.41,0.53,6.71,8186
16:38:14.144,82370,-0.19,-0.36,0.50,6.47,8187
16:38:14.183,82380,-0.30,-0.34,0.59,7.39,8188
16:38:14.183,82390,-0.37,-0.33,0.65,8.14,8189
16:38:14.185,82400,-0.34,-0.33,0.66,8.12,8190
16:38:14.185,82410,-0.34,-0.31,0.66,8.07,8191
16:38:14.222,82420,-0.42,-0.38,0.65,8.59,8192
16:38:14.222,82430,-0.52,-0.61,0.69,10.55,8193
16:38:14.223,82440,-0.69,-0.76,0.54,11.55,8194
16:38:14.225,82450,-0.71,-0.77,0.42,11.24,8195
16:38:14.263,82460,-0.65,-0.65,0.35,9.86,8196
16:38:14.263,82470,-0.64,-0.55,0.29,8.89,8197
16:38:14.264,82480,-0.77,-0.62,0.31,10.39,8198
16:38:14.266,82490,-0.79,-0.64,0.33,10.66,8199
16:38:14.303,82500,-0.65,-0.54,0.26,8.86,8200
16:38:14.304,82510,-0.59,-0.37,-0.04,7.01,8201
16:38:14.305,82520,-0.62,0.03,-0.51,8.04,8202
16:38:14.306,82530,-0.77,0.36,-0.84,11.96,8203
16:38:14.345,82540,-0.83,0.60,-1.00,14.36,8204
16:38:14.347,82550,-0.87,0.29,-0.69,11.50,8205
16:38:14.347,82560,-0.75,0.08,-0.52,9.14,8206
16:38:14.348,82570,-0.67,-0.27,-0.25,7.63,8207
16:38:14.372,82580,-0.52,-0.75,-0.09,9.22,8208
16:38:14.373,82590,-0.37,-0.87,-0.04,9.43,8209
16:38:14.374,82600,-0.62,-0.83,0.02,10.31,8210
16:38:14.392,82610,-1.32,-0.75,0.14,15.25,8211
16:38:14.396,82620,-2.00,-0.37,0.41,20.77,8212
16:38:14.403,82630,-2.13,-0.05,0.36,21.56,8213
16:38:14.420,82640,-1.95,0.43,0.13,19.97,8214
16:38:14.424,82650,-1.49,0.71,-0.09,16.50,8215
16:38:14.433,82660,-0.98,-0.15,0.01,9.96,8216
16:38:14.448,82670,-0.71,-0.70,0.30,10.43,8217
16:38:14.452,82680,-0.35,-0.99,0.37,11.15,8218
16:38:14.471,82690,-0.29,-1.21,0.05,12.48,8219
16:38:14.473,82700,-0.18,-1.29,0.22,13.18,8220
16:38:14.489,82710,-0.35,-0.99,0.37,11.10,8221
16:38:14.498,82720,-0.68,-0.75,0.44,11.01,8222
16:38:14.506,82730,-0.83,-0.55,0.59,11.55,8223
16:38:14.516,82740,-0.97,-0.35,0.54,11.66,8224
16:38:14.524,82750,-1.09,-0.26,0.47,12.20,8225
16:38:14.533,82760,-0.90,-0.46,0.38,10.74,8226
16:38:14.543,82770,-0.73,-0.80,0.21,10.99,8227
16:38:14.554,82780,-0.64,-0.91,0.09,11.18,8228
16:38:14.566,82790,-0.58,-0.91,-0.03,10.81,8229
16:38:14.574,82800,-0.56,-0.85,-0.05,10.18,8230
16:38:14.583,82810,-0.66,-0.78,0.07,10.25,8231
16:38:14.596,82820,-0.72,-0.70,0.17,10.18,8232
16:38:14.608,82830,-0.77,-0.60,0.21,10.04,8233
16:38:14.616,82840,-0.83,-0.55,0.24,10.23,8234
16:38:14.627,82850,-0.90,-0.51,0.29,10.73,8235
16:38:14.637,82860,-0.92,-0.53,0.31,11.04,8236
16:38:14.643,82870,-0.87,-0.58,0.27,10.75,8237
16:38:14.653,82880,-0.80,-0.61,0.21,10.30,8238
16:38:14.667,82890,-0.79,-0.59,0.16,10.02,8239
16:38:14.675,82900,-0.81,-0.58,0.13,10.04,8240
16:38:14.684,82910,-0.81,-0.59,0.09,10.09,8241
16:38:14.699,82920,-0.80,-0.61,0.08,10.12,8242
16:38:14.703,82930,-0.78,-0.63,0.12,10.10,8243
16:38:14.722,82940,-0.78,-0.64,0.13,10.22,8244
16:38:14.726,82950,-0.73,-0.66,0.11,9.95,8245
16:38:14.733,82960,-0.72,-0.67,0.11,9.90,8246
16:38:14.743,82970,-0.74,-0.66,0.11,9.99,8247
16:38:14.756,82980,-0.79,-0.61,0.12,10.05,8248
16:38:14.766,82990,-0.85,-0.55,0.14,10.27,8249
16:38:14.777,83000,-0.88,-0.50,0.14,10.26,8250
16:38:14.789,83010,-0.90,-0.47,0.13,10.21,8251
16:38:14.793,83020,-0.87,-0.49,0.14,10.13,8252
16:38:14.807,83030,-0.82,-0.55,0.12,9.95,8253
16:38:14.814,83040,-0.79,-0.59,0.07,9.87,8254
16:38:14.832,83050,-0.77,-0.63,0.04,9.98,8255
16:38:14.833,83060,-0.79,-0.66,0.03,10.30,8256
16:38:14.844,83070,-0.79,-0.64,0.03,10.22,8257
16:38:14.853,83080,-0.80,-0.62,0.04,10.16,8258
16:38:14.864,83090,-0.82,-0.62,0.07,10.28,8259
16:38:14.902,83100,-0.86,-0.58,0.06,10.41,8260
16:38:14.903,83110,-0.85,-0.52,0.06,10.01,8261
16:38:14.904,83120,-0.84,-0.51,0.04,9.82,8262
16:38:14.905,83130,-0.80,-0.54,-0.01,9.66,8263
16:38:14.944,83140,-0.77,-0.59,-0.01,9.70,8264
16:38:14.944,83150,-0.77,-0.60,0.01,9.77,8265
16:38:14.946,83160,-0.78,-0.62,-0.03,9.95,8266
16:38:14.946,83170,-0.76,-0.65,0.03,9.97,8267
16:38:14.987,83180,-0.80,-0.64,0.06,10.26,8268
16:38:14.987,83190,-0.82,-0.62,0.07,10.35,8269
16:38:14.988,83200,-0.86,-0.59,0.06,10.45,8270
16:38:14.990,83210,-0.90,-0.52,0.06,10.42,8271
16:38:15.032,83220,-0.93,-0.47,0.08,10.43,8272
16:38:15.064,83230,-0.93,-0.53,0.09,10.74,8273
16:38:15.065,83240,-0.97,-0.51,0.08,10.96,8274
16:38:15.066,83250,-1.02,-0.46,0.08,11.27,8275
16:38:15.066,83260,-1.13,-0.53,0.08,12.54,8276
16:38:15.067,83270,-1.21,-0.71,0.16,14.13,8277
16:38:15.069,83280,-1.48,-0.62,0.21,16.20,8278
16:38:15.107,83290,-1.54,-0.48,0.11,16.15,8279
16:38:15.107,83300,-1.65,-0.26,-0.16,16.82,8280
16:38:15.107,83310,-1.80,-0.31,-0.26,18.45,8281
16:38:15.109,83320,-1.84,-0.41,-0.33,19.16,8282
16:38:15.111,83330,-1.81,-0.54,-0.11,18.92,8283
16:38:15.126,83340,-1.61,-0.64,-0.07,17.32,8284
16:38:15.129,83350,-1.19,-0.87,-0.00,14.76,8285
16:38:15.135,83360,-0.85,-1.11,0.15,14.07,8286
16:38:15.144,83370,-0.62,-1.20,0.32,13.87,8287
16:38:15.160,83380,-0.64,-1.36,0.71,16.61,8288
16:38:15.164,83390,-0.62,-1.38,0.91,17.65,8289
16:38:15.180,83400,-0.70,-1.24,0.90,16.84,8290
16:38:15.183,83410,-0.64,-0.98,0.88,14.63,8291
16:38:15.195,83420,-0.48,-0.77,0.99,13.39,8292
16:38:15.206,83430,-0.01,-0.66,1.55,16.86,8293
16:38:15.216,83440,-0.17,-0.45,1.23,13.24,8294
16:38:15.258,83450,-0.33,-0.25,0.89,9.79,8295
16:38:15.266,83460,-0.39,-0.20,0.72,8.48,8296
16:38:15.279,83470,-0.41,-0.44,0.64,8.78,8297
16:38:15.279,83480,-0.38,-0.75,0.55,10.04,8298
16:38:15.281,83490,-0.23,-0.98,0.54,11.42,8299
16:38:15.297,83500,0.01,-0.94,0.59,11.08,8300
16:38:15.299,83510,0.19,-0.88,0.57,10.70,8301
16:38:15.299,83520,0.30,-0.78,0.54,9.92,8302
16:38:15.303,83530,0.10,-0.61,0.56,8.36,8303
16:38:15.318,83540,-0.07,-0.47,0.65,8.02,8304
16:38:15.324,83550,-0.18,-0.39,0.68,8.06,8305
16:38:15.334,83560,-0.18,-0.34,0.70,8.01,8306
16:38:15.343,83570,-0.20,-0.34,0.76,8.55,8307
16:38:15.360,83580,-0.03,-0.26,0.84,8.78,8308
16:38:15.363,83590,0.06,-0.28,0.73,7.79,8309
16:38:15.377,83600,0.01,-0.30,0.61,6.78,8310
16:38:15.384,83610,-0.11,-0.28,0.52,6.03,8311
16:38:15.394,83620,-0.22,-0.30,0.57,6.83,8312
16:38:15.404,83630,-0.28,-0.35,0.67,8.02,8313
16:38:15.420,83640,-0.28,-0.39,0.65,8.08,8314
16:38:15.424,83650,-0.25,-0.40,0.63,7.84,8315
16:38:15.436,83660,-0.31,-0.51,0.63,8.69,8316
16:38:15.443,83670,-0.44,-0.66,0.60,10.00,8317
16:38:15.454,83680,-0.64,-0.66,0.50,10.48,8318
16:38:15.467,83690,-0.76,-0.66,0.42,10.92,8319
16:38:15.474,83700,-0.79,-0.61,0.42,10.80,8320
16:38:15.484,83710,-0.80,-0.58,0.40,10.65,8321
16:38:15.493,83720,-0.87,-0.64,0.31,11.28,8322
16:38:15.510,83730,-0.81,-0.74,0.32,11.48,8323
16:38:15.514,83740,-0.52,-0.52,0.13,7.49,8324
16:38:15.531,83750,-0.50,-0.07,-0.37,6.21,8325
16:38:15.533,83760,-0.70,0.38,-0.78,11.11,8326
16:38:15.577,83770,-0.89,0.38,-0.84,12.82,8327
16:38:15.577,83780,-0.98,0.41,-1.07,15.07,8328
16:38:15.577,83790,-0.93,0.31,-0.84,12.87,8329
16:38:15.578,83800,-0.98,-0.01,-0.49,10.98,8330
16:38:15.617,83810,-0.65,-0.57,-0.12,8.70,8331
16:38:15.618,83820,-0.39,-0.84,-0.01,9.28,8332
16:38:15.619,83830,-0.28,-0.94,0.06,9.85,8333
16:38:15.619,83840,-0.58,-0.92,0.02,10.87,8334
16:38:15.650,83850,-1.39,-0.75,0.28,16.08,8335
16:38:15.651,83860,-2.00,-0.50,0.55,21.30,8336
16:38:15.651,83870,-2.13,-0.10,0.48,21.81,8337
16:38:15.653,83880,-1.97,0.49,0.08,20.30,8338
16:38:15.684,83890,-1.48,0.87,-0.07,17.16,8339
16:38:15.685,83900,-0.96,-0.03,0.19,9.75,8340
16:38:15.686,83910,-0.65,-0.67,0.40,10.19,8341
16:38:15.727,83920,-0.47,-1.07,0.35,12.24,8342
16:38:15.730,83930,-0.22,-1.40,0.16,14.29,8343
16:38:15.731,83940,-0.03,-1.48,-0.05,14.78,8344
16:38:15.766,83950,-0.01,-1.26,-0.03,12.57,8345
16:38:15.769,83960,-0.52,-0.77,0.41,10.19,8346
16:38:15.770,83970,-0.86,-0.53,0.58,11.63,8347
16:38:15.770,83980,-1.10,-0.35,0.60,12.95,8348
16:38:15.771,83990,-1.27,-0.13,0.55,13.93,8349
16:38:15.781,84000,-1.18,-0.02,0.38,12.41,8350
16:38:15.784,84010,-0.83,-0.57,0.24,10.35,8351
16:38:15.794,84020,-0.56,-0.88,0.17,10.59,8352
16:38:15.805,84030,-0.49,-1.03,-0.01,11.45,8353
16:38:15.814,84040,-0.47,-0.98,-0.07,10.86,8354
16:38:15.829,84050,-0.65,-0.75,0.07,9.93,8355
16:38:15.834,84060,-0.80,-0.62,0.17,10.28,8356
16:38:15.845,84070,-0.88,-0.52,0.22,10.48,8357
16:38:15.855,84080,-0.93,-0.46,0.23,10.62,8358
16:38:15.868,84090,-0.97,-0.46,0.27,11.09,8359
16:38:15.874,84100,-0.93,-0.48,0.29,10.85,8360
16:38:15.883,84110,-0.85,-0.57,0.24,10.52,8361
16:38:15.902,84120,-0.79,-0.62,0.19,10.26,8362
16:38:15.903,84130,-0.76,-0.65,0.16,10.11,8363
16:38:15.920,84140,-0.77,-0.65,0.13,10.16,8364
16:38:15.924,84150,-0.76,-0.68,0.10,10.26,8365
16:38:15.935,84160,-0.73,-0.76,0.06,10.60,8366
16:38:15.944,84170,-0.70,-0.82,0.02,10.77,8367
16:38:15.961,84180,-0.68,-0.80,0.01,10.50,8368
16:38:15.963,84190,-0.71,-0.73,-0.01,10.16,8369
16:38:15.973,84200,-0.78,-0.64,0.03,10.06,8370
16:38:15.987,84210,-0.87,-0.53,0.07,10.20,8371
16:38:15.995,84220,-0.97,-0.45,0.14,10.74,8372
16:38:16.011,84230,-0.95,-0.41,0.16,10.48,8373
16:38:16.015,84240,-0.88,-0.47,0.13,10.05,8374
16:38:16.023,84250,-0.81,-0.54,0.08,9.77,8375
16:38:16.038,84260,-0.81,-0.59,0.05,10.00,8376
16:38:16.044,84270,-0.80,-0.63,0.06,10.21,8377
16:38:16.053,84280,-0.82,-0.62,0.07,10.26,8378
16:38:16.070,84290,-0.83,-0.60,0.07,10.23,8379
16:38:16.074,84300,-0.83,-0.56,0.07,10.05,8380
16:38:16.088,84310,-0.84,-0.55,0.04,10.07,8381
16:38:16.096,84320,-0.80,-0.58,0.03,9.94,8382
16:38:16.105,84330,-0.78,-0.63,0.05,9.99,8383
16:38:16.119,84340,-0.80,-0.61,0.07,10.05,8384
16:38:16.126,84350,-0.85,-0.53,0.08,10.01,8385
16:38:16.134,84360,-0.87,-0.47,0.08,9.91,8386
16:38:16.144,84370,-0.85,-0.49,0.02,9.84,8387
16:38:16.160,84380,-0.81,-0.52,0.04,9.61,8388
16:38:16.163,84390,-0.79,-0.62,0.08,10.07,8389
16:38:16.173,84400,-0.79,-0.68,0.09,10.44,8390
16:38:16.185,84410,-0.81,-0.63,0.10,10.33,8391
16:38:16.194,84420,-0.86,-0.58,0.12,10.43,8392
16:38:16.209,84430,-0.92,-0.52,0.16,10.65,8393
16:38:16.214,84440,-0.90,-0.50,0.12,10.38,8394
16:38:16.223,84450,-0.82,-0.58,0.05,10.02,8395
16:38:16.234,84460,-0.81,-0.62,0.00,10.13,8396
16:38:16.248,84470,-0.88,-0.59,0.04,10.57,8397
16:38:16.259,84480,-0.98,-0.51,0.09,11.11,8398
16:38:16.263,84490,-1.09,-0.41,0.10,11.63,8399
16:38:16.273,84500,-1.19,-0.34,0.09,12.41,8400
16:38:16.288,84510,-1.31,-0.43,0.07,13.79,8401
16:38:16.294,84520,-1.40,-0.61,0.05,15.28,8402
16:38:16.305,84530,-1.66,-0.54,-0.01,17.47,8403
16:38:16.313,84540,-1.72,-0.31,-0.21,17.66,8404
16:38:16.367,84550,-1.73,-0.29,-0.33,17.88,8405
16:38:16.420,84560,-1.72,-0.36,-0.39,17.95,8406
16:38:16.420,84570,-1.59,-0.57,-0.21,17.03,8407
16:38:16.421,84580,-1.50,-0.79,-0.06,16.94,8408
16:38:16.423,84590,-1.18,-1.02,0.03,15.63,8409
16:38:16.425,84600,-0.82,-1.19,0.19,14.60,8410
16:38:16.457,84610,-0.68,-1.32,0.38,15.34,8411
16:38:16.458,84620,-0.63,-1.39,0.65,16.62,8412
16:38:16.459,84630,-0.60,-1.42,0.76,17.18,8413
16:38:16.461,84640,-0.65,-1.17,0.90,16.17,8414
16:38:16.463,84650,-0.63,-0.91,0.84,13.89,8415
16:38:16.463,84660,-0.48,-0.74,0.96,13.05,8416
16:38:16.463,84670,0.05,-0.74,1.58,17.44,8417
16:38:16.463,84680,-0.08,-0.56,1.34,14.54,8418
16:38:16.499,84690,-0.32,-0.34,1.00,11.03,8419
16:38:16.499,84700,-0.48,-0.25,0.75,9.24,8420
16:38:16.500,84710,-0.48,-0.40,0.64,8.93,8421
16:38:16.502,84720,-0.35,-0.66,0.58,9.50,8422
16:38:16.502,84730,-0.22,-0.91,0.49,10.53,8423
16:38:16.540,84740,-0.02,-0.94,0.52,10.75,8424
16:38:16.540,84750,0.20,-0.90,0.53,10.61,8425
16:38:16.542,84760,0.33,-0.82,0.55,10.45,8426
16:38:16.543,84770,0.19,-0.68,0.56,8.98,8427
16:38:16.579,84780,-0.02,-0.53,0.67,8.56,8428
16:38:16.579,84790,-0.17,-0.46,0.75,8.98,8429
16:38:16.594,84800,-0.21,-0.27,0.71,7.90,8430
16:38:16.596,84810,-0.19,-0.20,0.73,7.76,8431
16:38:16.596,84820,-0.08,-0.16,0.85,8.72,8432
16:38:16.614,84830,-0.03,-0.18,0.86,8.76,8433
16:38:16.615,84840,-0.04,-0.19,0.78,8.00,8434
16:38:16.627,84850,-0.13,-0.20,0.66,7.00,8435
16:38:16.634,84860,-0.23,-0.26,0.58,6.73,8436
16:38:16.651,84870,-0.27,-0.32,0.61,7.45,8437
16:38:16.654,84880,-0.28,-0.40,0.67,8.25,8438
16:38:16.669,84890,-0.24,-0.47,0.69,8.69,8439
16:38:16.674,84900,-0.20,-0.57,0.65,8.87,8440
16:38:16.691,84910,-0.23,-0.72,0.61,9.72,8441
16:38:16.694,84920,-0.35,-0.86,0.56,10.85,8442
16:38:16.709,84930,-0.48,-0.87,0.42,10.83,8443
16:38:16.714,84940,-0.64,-0.71,0.32,10.04,8444
16:38:16.728,84950,-0.75,-0.50,0.29,9.43,8445
16:38:16.737,84960,-0.86,-0.39,0.34,10.06,8446
16:38:16.744,84970,-0.91,-0.43,0.46,11.03,8447
16:38:16.754,84980,-0.81,-0.52,0.55,11.07,8448
16:38:16.769,84990,-0.77,-0.56,0.09,9.53,8449
16:38:16.773,85000,-0.61,-0.15,-0.39,7.32,8450
16:38:16.783,85010,-0.63,0.08,-0.68,9.28,8451
16:38:16.796,85020,-0.67,0.25,-0.80,10.75,8452
16:38:16.807,85030,-0.77,0.21,-0.89,11.92,8453
16:38:16.818,85040,-0.81,0.17,-0.71,10.94,8454
16:38:16.823,85050,-0.59,0.10,-0.38,7.09,8455
16:38:16.833,85060,-0.60,-0.43,-0.07,7.37,8456
16:38:16.847,85070,-0.53,-0.75,0.14,9.27,8457
16:38:16.854,85080,-0.48,-0.90,0.09,10.29,8458
16:38:16.866,85090,-0.83,-0.88,0.06,12.10,8459
16:38:16.873,85100,-1.53,-0.72,0.14,16.94,8460
16:38:16.883,85110,-2.08,-0.41,0.25,21.37,8461
16:38:16.900,85120,-2.13,-0.10,0.35,21.56,8462
16:38:16.904,85130,-1.82,0.29,0.11,18.46,8463
16:38:16.913,85140,-1.35,0.39,-0.08,14.13,8464
16:38:16.923,85150,-0.85,-0.49,-0.06,9.78,8465
16:38:16.935,85160,-0.53,-0.82,0.17,9.97,8466
16:38:16.947,85170,-0.48,-1.02,0.03,11.28,8467
16:38:16.956,85180,-0.42,-1.08,0.24,11.79,8468
16:38:16.966,85190,-0.46,-1.11,0.40,12.66,8469
16:38:16.974,85200,-0.60,-0.90,0.60,12.31,8470
16:38:16.990,85210,-0.64,-0.64,0.62,10.96,8471
16:38:16.995,85220,-0.77,-0.36,0.58,10.29,8472
16:38:17.005,85230,-0.93,-0.27,0.57,11.24,8473
16:38:17.057,85240,-0.99,-0.32,0.55,11.83,8474
16:38:17.058,85250,-0.88,-0.64,0.37,11.50,8475
16:38:17.059,85260,-0.72,-0.92,0.18,11.86,8476
16:38:17.062,85270,-0.63,-1.03,0.04,12.08,8477
16:38:17.097,85280,-0.52,-1.02,-0.09,11.44,8478
16:38:17.098,85290,-0.47,-0.96,-0.15,10.79,8479
16:38:17.099,85300,-0.60,-0.83,0.04,10.27,8480
16:38:17.100,85310,-0.70,-0.64,0.16,9.60,8481
16:38:17.102,85320,-0.82,-0.63,0.18,10.54,8482
16:38:17.139,85330,-0.94,-0.56,0.24,11.20,8483
16:38:17.139,85340,-0.99,-0.52,0.33,11.61,8484
16:38:17.142,85350,-0.96,-0.47,0.36,11.22,8485
16:38:17.142,85360,-0.83,-0.46,0.31,9.99,8486
16:38:17.144,85370,-0.76,-0.54,0.23,9.59,8487
16:38:17.181,85380,-0.75,-0.62,0.15,9.81,8488
16:38:17.181,85390,-0.76,-0.70,0.11,10.42,8489
16:38:17.182,85400,-0.75,-0.79,0.08,10.96,8490
16:38:17.184,85410,-0.71,-0.84,0.00,11.01,8491
16:38:17.214,85420,-0.67,-0.84,-0.04,10.78,8492
16:38:17.214,85430,-0.69,-0.74,0.01,10.18,8493
16:38:17.215,85440,-0.76,-0.66,0.00,10.10,8494
16:38:17.243,85450,-0.86,-0.53,0.04,10.14,8495
16:38:17.250,85460,-0.96,-0.43,0.12,10.56,8496
16:38:17.252,85470,-0.98,-0.40,0.16,10.71,8497
16:38:17.253,85480,-0.91,-0.45,0.12,10.25,8498
16:38:17.263,85490,-0.86,-0.52,0.05,10.04,8499
16:38:17.277,85500,-0.84,-0.58,0.02,10.21,8500
16:38:17.285,85510,-0.84,-0.61,-0.00,10.38,8501
16:38:17.296,85520,-0.85,-0.59,-0.01,10.32,8502
16:38:17.305,85530,-0.86,-0.56,-0.02,10.21,8503
16:38:17.317,85540,-0.86,-0.54,-0.03,10.20,8504
16:38:17.328,85550,-0.90,-0.51,-0.09,10.43,8505
16:38:17.333,85560,-0.94,-0.53,-0.09,10.83,8506
16:38:17.343,85570,-0.98,-0.49,-0.09,11.00,8507
16:38:17.354,85580,-0.93,-0.51,-0.09,10.68,8508
16:38:17.364,85590,-0.85,-0.56,-0.06,10.17,8509
16:38:17.377,85600,-0.80,-0.57,-0.02,9.80,8510
16:38:17.383,85610,-0.78,-0.59,0.05,9.82,8511
16:38:17.397,85620,-0.80,-0.63,0.06,10.19,8512
16:38:17.404,85630,-0.81,-0.63,0.04,10.32,8513
16:38:17.414,85640,-0.84,-0.62,0.03,10.49,8514
16:38:17.423,85650,-0.87,-0.58,0.03,10.45,8515
16:38:17.433,85660,-0.92,-0.51,0.05,10.48,8516
16:38:17.443,85670,-0.93,-0.44,0.07,10.36,8517
16:38:17.454,85680,-0.89,-0.45,0.06,9.98,8518
16:38:17.467,85690,-0.87,-0.50,-0.01,10.00,8519
16:38:17.475,85700,-0.90,-0.52,-0.02,10.42,8520
16:38:17.486,85710,-0.98,-0.52,0.01,11.04,8521
16:38:17.496,85720,-1.05,-0.48,0.04,11.51,8522
16:38:17.504,85730,-1.10,-0.48,0.02,12.01,8523
16:38:17.514,85740,-1.16,-0.64,0.03,13.21,8524
16:38:17.527,85750,-1.34,-0.61,0.14,14.77,8525
16:38:17.540,85760,-1.53,-0.39,0.14,15.82,8526
16:38:17.543,85770,-1.47,-0.16,0.08,14.82,8527
16:38:17.556,85780,-1.62,-0.14,-0.05,16.23,8528
16:38:17.566,85790,-1.72,-0.34,-0.38,17.90,8529
16:38:17.574,85800,-1.48,-0.59,-0.06,15.94,8530
16:38:17.583,85810,-1.40,-0.81,0.01,16.15,8531
16:38:17.597,85820,-1.08,-1.00,-0.05,14.75,8532
16:38:17.623,85830,-0.72,-1.14,0.11,13.54,8533
16:38:17.624,85840,-0.62,-1.27,0.18,14.21,8534
16:38:17.625,85850,-0.57,-1.21,1.07,17.17,8535
16:38:17.635,85860,-0.76,-1.35,0.89,17.89,8536
16:38:17.650,85870,-0.83,-1.11,0.88,16.45,8537
16:38:17.716,85880,-0.68,-0.90,0.86,14.17,8538
16:38:17.717,85890,-0.54,-0.88,1.10,15.07,8539
16:38:17.718,85900,-0.23,-0.62,1.20,13.69,8540
16:38:17.718,85910,-0.19,-0.48,1.11,12.26,8541
16:38:17.719,85920,-0.35,-0.31,0.92,10.28,8542
16:38:17.724,85930,-0.51,-0.26,0.77,9.61,8543
16:38:17.726,85940,-0.56,-0.36,0.64,9.18,8544
16:38:17.726,85950,-0.45,-0.59,0.63,9.77,8545
16:38:17.733,85960,-0.35,-0.81,0.57,10.54,8546
16:38:17.749,85970,-0.16,-0.92,0.57,10.90,8547
16:38:17.753,85980,-0.00,-0.93,0.57,10.92,8548
16:38:17.769,85990,0.11,-0.87,0.55,10.37,8549
16:38:17.773,86000,0.07,-0.67,0.59,8.92,8550
16:38:17.788,86010,-0.11,-0.50,0.62,8.11,8551
16:38:17.794,86020,-0.19,-0.40,0.64,7.79,8552
16:38:17.806,86030,-0.23,-0.34,0.67,7.90,8553
16:38:17.814,86040,-0.24,-0.32,0.71,8.18,8554
16:38:17.854,86050,-0.17,-0.37,0.77,8.69,8555
16:38:17.856,86060,-0.02,-0.38,0.76,8.49,8556
16:38:17.857,86070,-0.05,-0.38,0.65,7.58,8557
16:38:17.857,86080,-0.14,-0.37,0.61,7.30,8558
16:38:17.896,86090,-0.25,-0.35,0.65,7.74,8559
16:38:18.009,86100,-0.30,-0.31,0.69,8.14,8560
16:38:18.010,86110,-0.29,-0.33,0.65,7.89,8561
16:38:18.011,86120,-0.23,-0.40,0.67,8.14,8562
16:38:18.012,86130,-0.24,-0.45,0.69,8.61,8563
16:38:18.012,86140,-0.29,-0.49,0.62,8.48,8564
16:38:18.044,86150,-0.42,-0.62,0.61,9.63,8565
16:38:18.044,86160,-0.53,-0.69,0.52,10.14,8566
16:38:18.045,86170,-0.56,-0.71,0.42,9.93,8567
16:38:18.046,86180,-0.61,-0.64,0.39,9.69,8568
16:38:18.051,86190,-0.73,-0.57,0.37,9.93,8569
16:38:18.051,86200,-0.80,-0.50,0.30,9.96,8570
16:38:18.051,86210,-0.84,-0.51,0.35,10.45,8571
16:38:18.051,86220,-0.73,-0.58,0.42,10.19,8572
16:38:18.051,86230,-0.55,-0.51,0.13,7.57,8573
16:38:18.051,86240,-0.49,-0.13,-0.38,6.35,8574
16:38:18.051,86250,-0.83,0.30,-0.58,10.55,8575
16:38:18.051,86260,-0.85,0.33,-0.52,10.54,8576
16:38:18.051,86270,-0.85,0.17,-0.53,10.13,8577
16:38:18.052,86280,-0.77,-0.08,-0.48,9.05,8578
16:38:18.065,86290,-0.61,-0.31,-0.30,7.50,8579
16:38:18.076,86300,-0.48,-0.58,-0.05,7.51,8580
16:38:18.085,86310,-0.79,-0.71,-0.02,10.63,8581
16:38:18.097,86320,-1.49,-0.70,0.26,16.65,8582
16:38:18.104,86330,-2.11,-0.42,0.52,22.15,8583
16:38:18.117,86340,-2.13,0.02,0.35,21.54,8584
16:38:18.123,86350,-2.00,0.73,0.15,21.33,8585
16:38:18.133,86360,-1.35,0.72,0.06,15.29,8586
16:38:18.143,86370,-0.77,-0.20,0.03,7.98,8587
16:38:18.153,86380,-0.41,-0.84,0.29,9.81,8588
16:38:18.171,86390,-0.23,-1.08,0.51,12.16,8589
16:38:18.174,86400,-0.18,-1.51,0.34,15.61,8590
16:38:18.184,86410,-0.00,-1.52,0.21,15.34,8591
16:38:18.203,86420,-0.42,-0.78,0.43,9.82,8592
16:38:18.205,86430,-0.70,-0.55,0.46,10.03,8593
16:38:18.214,86440,-1.05,-0.43,0.53,12.54,8594
16:38:18.228,86450,-1.16,-0.39,0.56,13.46,8595
16:38:18.233,86460,-0.95,-0.59,0.39,11.82,8596
16:38:18.245,86470,-0.68,-0.86,0.21,11.17,8597
16:38:18.262,86480,-0.57,-0.97,0.08,11.28,8598
16:38:18.263,86490,-0.52,-0.98,-0.04,11.12,8599
16:38:18.273,86500,-0.58,-0.91,-0.03,10.75,8600
16:38:18.289,86510,-0.67,-0.81,0.02,10.52,8601
16:38:18.294,86520,-0.74,-0.73,0.04,10.39,8602
16:38:18.310,86530,-0.84,-0.65,0.07,10.68,8603
16:38:18.313,86540,-0.91,-0.60,0.13,10.94,8604
16:38:18.324,86550,-0.92,-0.55,0.17,10.83,8605
16:38:18.333,86560,-0.89,-0.52,0.18,10.46,8606
16:38:18.348,86570,-0.85,-0.53,0.17,10.10,8607
16:38:18.353,86580,-0.83,-0.56,0.16,10.08,8608
16:38:18.364,86590,-0.81,-0.55,0.19,10.02,8609
16:38:18.378,86600,-0.79,-0.67,0.12,10.43,8610
16:38:18.383,86610,-0.76,-0.71,0.03,10.40,8611
16:38:18.393,86620,-0.72,-0.75,-0.02,10.46,8612
16:38:18.408,86630,-0.67,-0.76,-0.05,10.15,8613
16:38:18.414,86640,-0.81,-0.58,-0.06,10.02,8614
16:38:18.424,86650,-0.89,-0.47,0.08,10.07,8615
16:38:18.441,86660,-0.97,-0.44,0.08,10.63,8616
16:38:18.443,86670,-0.99,-0.40,0.13,10.78,8617
16:38:18.461,86680,-0.97,-0.39,0.09,10.52,8618
16:38:18.464,86690,-0.88,-0.47,0.03,9.96,8619
16:38:18.474,86700,-0.85,-0.51,0.02,9.96,8620
16:38:18.483,86710,-0.86,-0.52,0.03,10.02,8621
16:38:18.493,86720,-0.85,-0.54,0.04,10.09,8622
16:38:18.508,86730,-0.82,-0.56,0.04,9.97,8623
16:38:18.517,86740,-0.80,-0.57,0.05,9.78,8624
16:38:18.525,86750,-0.81,-0.54,0.01,9.75,8625
16:38:18.578,86760,-0.84,-0.52,0.05,9.87,8626
16:38:18.579,86770,-0.87,-0.53,0.12,10.25,8627
16:38:18.580,86780,-0.85,-0.58,0.16,10.47,8628
16:38:18.580,86790,-0.79,-0.61,0.17,10.15,8629
16:38:18.581,86800,-0.77,-0.58,0.14,9.72,8630
16:38:18.583,86810,-0.76,-0.57,0.14,9.60,8631
16:38:18.620,86820,-0.76,-0.58,0.19,9.73,8632
16:38:18.620,86830,-0.76,-0.56,0.20,9.64,8633
16:38:18.620,86840,-0.75,-0.59,0.21,9.80,8634
16:38:18.623,86850,-0.78,-0.61,0.20,10.10,8635
16:38:18.660,86860,-0.79,-0.61,0.20,10.15,8636
16:38:18.662,86870,-0.84,-0.60,0.17,10.43,8637
16:38:18.663,86880,-0.87,-0.59,0.15,10.62,8638
16:38:18.665,86890,-0.89,-0.52,0.13,10.43,8639
16:38:18.703,86900,-0.87,-0.55,0.10,10.39,8640
16:38:18.703,86910,-0.83,-0.63,0.08,10.44,8641
16:38:18.704,86920,-0.86,-0.66,0.08,10.81,8642
16:38:18.705,86930,-0.94,-0.58,0.12,11.12,8643
16:38:18.744,86940,-1.00,-0.48,0.13,11.18,8644
16:38:18.744,86950,-1.05,-0.40,0.08,11.26,8645
16:38:18.744,86960,-1.11,-0.36,0.03,11.67,8646
16:38:18.747,86970,-1.17,-0.56,0.00,12.99,8647
16:38:18.757,86980,-1.31,-0.70,0.02,14.83,8648
16:38:18.775,86990,-1.48,-0.60,-0.08,15.93,8649
16:38:18.777,87000,-1.61,-0.39,-0.23,16.72,8650
16:38:18.783,87010,-1.64,-0.30,-0.37,17.08,8651
16:38:18.799,87020,-1.70,-0.36,-0.46,17.94,8652
16:38:18.803,87030,-1.56,-0.61,-0.20,16.84,8653
16:38:18.821,87040,-1.50,-0.77,-0.09,16.85,8654
16:38:18.824,87050,-1.17,-0.87,-0.01,14.59,8655
16:38:18.834,87060,-0.85,-1.06,0.15,13.63,8656
16:38:18.850,87070,-0.66,-1.21,0.23,13.98,8657
16:38:18.853,87080,-0.60,-1.23,0.58,14.85,8658
16:38:18.869,87090,-0.63,-1.24,0.82,16.13,8659
16:38:18.904,87100,-0.69,-1.06,0.99,16.08,8660
16:38:18.905,87110,-0.63,-0.99,1.02,15.54,8661
16:38:18.906,87120,-0.51,-0.78,1.13,14.66,8662
16:38:18.908,87130,-0.21,-0.71,1.35,15.39,8663
16:38:18.915,87140,-0.15,-0.53,1.31,14.18,8664
16:38:18.932,87150,-0.27,-0.33,0.96,10.47,8665
16:38:18.934,87160,-0.39,-0.25,0.72,8.54,8666
16:38:18.944,87170,-0.39,-0.44,0.62,8.59,8667
16:38:18.985,87180,-0.40,-0.67,0.50,9.26,8668
16:38:18.985,87190,-0.24,-0.88,0.39,9.93,8669
16:38:18.989,87200,-0.04,-0.91,0.59,10.83,8670
16:38:18.989,87210,0.11,-0.92,0.54,10.66,8671
16:38:18.997,87220,0.17,-0.83,0.52,9.94,8672
16:38:19.005,87230,0.07,-0.68,0.59,9.04,8673
16:38:19.020,87240,-0.08,-0.52,0.68,8.64,8674
16:38:19.023,87250,-0.20,-0.41,0.65,7.97,8675
16:38:19.036,87260,-0.23,-0.33,0.72,8.30,8676
16:38:19.046,87270,-0.23,-0.29,0.81,8.89,8677
16:38:19.056,87280,-0.20,-0.27,0.82,8.89,8678
16:38:19.064,87290,-0.18,-0.25,0.81,8.62,8679
16:38:19.074,87300,-0.15,-0.35,0.70,7.92,8680
16:38:19.088,87310,-0.19,-0.35,0.61,7.24,8681
16:38:19.093,87320,-0.24,-0.30,0.62,7.24,8682
16:38:19.107,87330,-0.26,-0.35,0.69,8.19,8683
16:38:19.113,87340,-0.24,-0.42,0.66,8.16,8684
16:38:19.125,87350,-0.21,-0.49,0.62,8.23,8685
16:38:19.134,87360,-0.20,-0.53,0.59,8.15,8686
16:38:19.144,87370,-0.28,-0.58,0.57,8.62,8687
16:38:19.158,87380,-0.44,-0.64,0.60,9.82,8688
16:38:19.166,87390,-0.54,-0.63,0.60,10.28,8689
16:38:19.177,87400,-0.63,-0.63,0.56,10.51,8690
16:38:19.187,87410,-0.72,-0.51,0.47,10.05,8691
16:38:19.194,87420,-0.76,-0.40,0.37,9.35,8692
16:38:19.203,87430,-0.79,-0.35,0.33,9.26,8693
16:38:19.213,87440,-0.80,-0.50,0.35,10.06,8694
16:38:19.224,87450,-0.69,-0.64,0.38,10.19,8695
16:38:19.234,87460,-0.61,-0.63,0.09,8.81,8696
16:38:19.244,87470,-0.60,-0.39,-0.41,8.30,8697
16:38:19.255,87480,-0.70,0.03,-0.72,10.06,8698
16:38:19.308,87490,-0.86,0.13,-0.85,12.15,8699
16:38:19.309,87500,-0.88,0.12,-0.88,12.49,8700
16:38:19.309,87510,-1.12,0.40,-0.87,14.71,8701
16:38:19.312,87520,-0.77,0.12,-0.59,9.77,8702
16:38:19.313,87530,-0.64,-0.30,-0.33,7.80,8703
16:38:19.341,87540,-0.58,-0.76,-0.13,9.69,8704
16:38:19.341,87550,-0.37,-1.03,-0.11,11.01,8705
16:38:19.342,87560,-0.39,-0.93,-0.11,10.19,8706
16:38:19.343,87570,-0.91,-0.87,-0.01,12.61,8707
16:38:19.382,87580,-1.56,-0.80,0.18,17.65,8708
16:38:19.383,87590,-1.97,-0.50,0.24,20.45,8709
16:38:19.384,87600,-2.11,0.03,0.24,21.24,8710
16:38:19.385,87610,-1.83,0.35,-0.01,18.59,8711
16:38:19.422,87620,-1.53,0.62,0.12,16.54,8712
16:38:19.423,87630,-1.02,-0.02,0.35,10.81,8713
16:38:19.424,87640,-0.74,-0.60,0.23,9.75,8714
16:38:19.425,87650,-0.54,-0.92,0.15,10.81,8715
16:38:19.464,87660,-0.30,-1.23,0.11,12.67,8716
16:38:19.465,87670,-0.12,-1.50,0.47,15.73,8717
16:38:19.465,87680,-0.41,-0.88,0.39,10.40,8718
16:38:19.467,87690,-0.68,-0.67,0.39,10.25,8719
16:38:19.490,87700,-0.86,-0.36,0.53,10.72,8720
16:38:19.491,87710,-1.13,-0.22,0.57,12.82,8721
16:38:19.494,87720,-1.23,-0.10,0.51,13.35,8722
16:38:19.511,87730,-0.98,-0.36,0.41,11.20,8723
16:38:19.514,87740,-0.65,-0.82,0.26,10.76,8724
16:38:19.524,87750,-0.49,-1.05,0.08,11.60,8725
16:38:19.534,87760,-0.41,-1.10,-0.13,11.76,8726
16:38:19.546,87770,-0.39,-1.06,-0.11,11.36,8727
16:38:19.556,87780,-0.57,-0.91,0.06,10.72,8728
16:38:19.563,87790,-0.67,-0.80,0.18,10.56,8729
16:38:19.575,87800,-0.76,-0.74,0.20,10.82,8730
16:38:19.586,87810,-0.85,-0.65,0.25,10.94,8731
16:38:19.594,87820,-0.91,-0.55,0.30,11.07,8732
16:38:19.604,87830,-0.95,-0.47,0.31,11.03,8733
16:38:19.613,87840,-0.91,-0.46,0.30,10.61,8734
16:38:19.624,87850,-0.81,-0.57,0.23,10.14,8735
16:38:19.635,87860,-0.78,-0.64,0.17,10.26,8736
16:38:19.648,87870,-0.76,-0.70,0.14,10.46,8737
16:38:19.654,87880,-0.72,-0.77,0.08,10.60,8738
16:38:19.664,87890,-0.67,-0.82,0.04,10.65,8739
16:38:19.673,87900,-0.64,-0.82,0.01,10.43,8740
16:38:19.685,87910,-0.67,-0.74,0.02,9.95,8741
16:38:19.695,87920,-0.75,-0.64,0.06,9.86,8742
16:38:19.706,87930,-0.85,-0.51,0.10,9.96,8743
16:38:19.713,87940,-0.95,-0.40,0.13,10.44,8744
16:38:19.728,87950,-0.99,-0.39,0.17,10.72,8745
16:38:19.735,87960,-0.92,-0.45,0.16,10.37,8746
16:38:19.744,87970,-0.83,-0.54,0.10,9.95,8747
16:38:19.753,87980,-0.79,-0.59,0.06,9.90,8748
16:38:19.769,87990,-0.77,-0.64,0.05,10.08,8749
16:38:19.773,88000,-0.78,-0.66,0.08,10.29,8750
16:38:19.785,88010,-0.79,-0.65,0.08,10.30,8751
16:38:19.794,88020,-0.82,-0.59,0.07,10.14,8752
16:38:19.803,88030,-0.83,-0.56,0.04,10.03,8753
16:38:19.813,88040,-0.83,-0.54,0.01,9.92,8754
16:38:19.823,88050,-0.85,-0.53,0.02,10.06,8755
16:38:19.837,88060,-0.88,-0.53,0.02,10.31,8756
16:38:19.851,88070,-0.94,-0.46,0.01,10.47,8757
16:38:19.853,88080,-0.98,-0.40,-0.01,10.56,8758
16:38:19.870,88090,-0.94,-0.44,-0.02,10.35,8759
16:38:19.874,88100,-0.87,-0.53,-0.04,10.17,8760
16:38:19.888,88110,-0.81,-0.59,-0.03,10.02,8761
16:38:19.896,88120,-0.85,-0.59,-0.04,10.36,8762
16:38:19.905,88130,-0.74,-0.67,-0.07,9.94,8763
16:38:19.917,88140,-0.76,-0.67,0.03,10.12,8764
16:38:19.926,88150,-0.77,-0.65,0.08,10.09,8765
16:38:19.968,88160,-0.78,-0.62,0.07,9.95,8766
16:38:19.968,88170,-0.79,-0.63,0.07,10.13,8767
16:38:19.969,88180,-0.77,-0.61,0.09,9.88,8768
16:38:19.969,88190,-0.81,-0.57,0.09,9.92,8769
16:38:20.009,88200,-0.92,-0.51,0.17,10.66,8770
16:38:20.009,88210,-1.00,-0.47,0.22,11.23,8771
16:38:20.010,88220,-1.03,-0.46,0.24,11.53,8772
16:38:20.011,88230,-1.03,-0.41,0.21,11.26,8773
16:38:20.013,88240,-1.07,-0.42,0.07,11.56,8774
16:38:20.050,88250,-1.13,-0.43,0.01,12.12,8775
16:38:20.050,88260,-1.24,-0.64,-0.04,13.93,8776
16:38:20.051,88270,-1.44,-0.71,0.03,16.11,8777
16:38:20.054,88280,-1.69,-0.56,-0.07,17.78,8778
16:38:20.089,88290,-1.67,-0.32,-0.17,17.09,8779
16:38:20.090,88300,-1.76,-0.36,-0.44,18.50,8780
16:38:20.091,88310,-1.69,-0.60,-0.28,18.13,8781
16:38:20.095,88320,-1.62,-0.84,-0.01,18.22,8782
16:38:20.133,88330,-1.41,-0.96,0.03,17.04,8783
16:38:20.133,88340,-1.00,-1.03,0.06,14.36,8784
16:38:20.136,88350,-0.65,-1.10,0.20,12.94,8785
16:38:20.138,88360,-0.41,-1.19,0.61,14.02,8786
16:38:20.157,88370,-0.49,-1.33,0.91,16.86,8787
16:38:20.173,88380,-0.50,-1.30,0.95,16.83,8788
16:38:20.173,88390,-0.53,-1.13,0.93,15.59,8789
16:38:20.174,88400,-0.35,-0.90,1.14,14.93,8790
16:38:20.189,88410,-0.14,-0.72,1.35,15.36,8791
16:38:20.195,88420,-0.14,-0.50,1.35,14.46,8792
16:38:20.212,88430,-0.25,-0.27,1.09,11.52,8793
16:38:20.214,88440,-0.32,-0.14,0.85,9.22,8794
16:38:20.230,88450,-0.39,-0.25,0.61,7.64,8795
16:38:20.234,88460,-0.36,-0.58,0.53,8.68,8796
16:38:20.245,88470,-0.25,-0.86,0.37,9.67,8797
16:38:20.286,88480,-0.05,-0.98,0.56,11.26,8798
16:38:20.286,88490,0.13,-0.94,0.59,11.18,8799
16:38:20.288,88500,0.19,-0.86,0.58,10.55,8800
16:38:20.288,88510,0.10,-0.65,0.60,8.89,8801
16:38:20.293,88520,-0.04,-0.48,0.67,8.24,8802
16:38:20.304,88530,-0.16,-0.35,0.71,8.11,8803
16:38:20.313,88540,-0.21,-0.27,0.73,8.11,8804
16:38:20.334,88550,-0.22,-0.25,0.75,8.22,8805
16:38:20.334,88560,-0.19,-0.15,0.83,8.66,8806
16:38:20.351,88570,-0.14,-0.22,0.74,7.89,8807
16:38:20.353,88580,-0.12,-0.28,0.61,6.85,8808
16:38:20.368,88590,-0.19,-0.32,0.52,6.37,8809
16:38:20.378,88600,-0.25,-0.34,0.56,6.96,8810
16:38:20.386,88610,-0.30,-0.37,0.60,7.66,8811
16:38:20.397,88620,-0.30,-0.37,0.58,7.52,8812
16:38:20.404,88630,-0.32,-0.35,0.58,7.53,8813
16:38:20.414,88640,-0.32,-0.41,0.63,8.17,8814
16:38:20.433,88650,-0.37,-0.57,0.64,9.32,8815
16:38:20.433,88660,-0.46,-0.67,0.57,9.90,8816
16:38:20.443,88670,-0.56,-0.74,0.51,10.60,8817
16:38:20.454,88680,-0.70,-0.76,0.46,11.28,8818
16:38:20.464,88690,-0.68,-0.65,0.36,10.07,8819
16:38:20.478,88700,-0.72,-0.56,0.24,9.39,8820
16:38:20.483,88710,-0.82,-0.58,0.20,10.25,8821
16:38:20.495,88720,-0.81,-0.57,0.27,10.21,8822
16:38:20.510,88730,-0.75,-0.49,0.15,9.10,8823
16:38:20.514,88740,-0.74,-0.18,-0.27,8.13,8824
16:38:20.525,88750,-0.71,0.18,-0.64,9.76,8825
16:38:20.539,88760,-1.16,0.71,-0.98,16.72,8826
16:38:20.544,88770,-0.92,0.41,-0.96,13.93,8827
16:38:20.558,88780,-0.89,0.29,-0.87,12.79,8828
16:38:20.574,88790,-0.80,0.06,-0.62,10.15,8829
16:38:20.576,88800,-0.64,-0.29,-0.33,7.79,8830
16:38:20.589,88810,-0.49,-0.57,-0.18,7.73,8831
16:38:20.593,88820,-0.55,-0.84,-0.03,10.04,8832
16:38:20.605,88830,-0.63,-0.90,0.00,10.98,8833
16:38:20.613,88840,-0.89,-0.79,0.12,11.93,8834
16:38:20.627,88850,-1.41,-0.60,0.26,15.53,8835
16:38:20.633,88860,-1.89,-0.30,0.26,19.29,8836
16:38:20.645,88870,-1.87,0.07,0.17,18.77,8837
16:38:20.655,88880,-1.87,0.42,0.01,19.13,8838
16:38:20.670,88890,-1.62,0.43,0.07,16.82,8839
16:38:20.675,88900,-1.01,-0.76,0.14,12.67,8840
16:38:20.684,88910,-0.60,-0.81,0.16,10.20,8841
16:38:20.699,88920,-0.35,-1.03,0.11,10.92,8842
16:38:20.707,88930,-0.23,-1.22,-0.06,12.39,8843
16:38:20.714,88940,-0.22,-1.12,0.16,11.51,8844
16:38:20.725,88950,-0.53,-0.80,0.40,10.42,8845
16:38:20.768,88960,-0.78,-0.70,0.45,11.41,8846
16:38:20.769,88970,-0.87,-0.57,0.63,12.12,8847
16:38:20.770,88980,-0.93,-0.35,0.62,11.70,8848
16:38:20.771,88990,-1.09,-0.16,0.48,12.02,8849
16:38:20.773,89000,-1.00,-0.19,0.39,10.92,8850
16:38:20.809,89010,-0.79,-0.64,0.27,10.53,8851
16:38:20.814,89020,-0.66,-0.90,0.18,11.25,8852
16:38:20.815,89030,-0.55,-1.07,0.05,12.02,8853
16:38:20.815,89040,-0.47,-1.05,-0.04,11.46,8854
16:38:20.851,89050,-0.52,-0.97,0.01,11.00,8855
16:38:20.851,89060,-0.65,-0.85,0.13,10.73,8856
16:38:20.852,89070,-0.72,-0.68,0.19,10.08,8857
16:38:20.853,89080,-0.83,-0.57,0.25,10.34,8858
16:38:20.891,89090,-0.91,-0.47,0.30,10.69,8859
16:38:20.892,89100,-0.98,-0.43,0.34,11.19,8860
16:38:20.893,89110,-0.97,-0.41,0.34,11.08,8861
16:38:20.894,89120,-0.89,-0.49,0.29,10.57,8862
16:38:20.932,89130,-0.81,-0.58,0.21,10.20,8863
16:38:20.933,89140,-0.79,-0.63,0.17,10.25,8864
16:38:20.934,89150,-0.76,-0.70,0.13,10.41,8865
16:38:20.935,89160,-0.74,-0.73,0.09,10.43,8866
16:38:20.958,89170,-0.72,-0.73,0.08,10.30,8867
16:38:20.959,89180,-0.72,-0.71,0.09,10.16,8868
16:38:20.963,89190,-0.71,-0.69,0.08,9.95,8869
16:38:20.974,89200,-0.73,-0.66,0.06,9.90,8870
16:38:20.990,89210,-0.77,-0.63,0.07,9.94,8871
16:38:20.993,89220,-0.82,-0.59,0.10,10.14,8872
16:38:21.026,89230,-0.86,-0.55,0.11,10.22,8873
16:38:21.027,89240,-0.88,-0.51,0.07,10.20,8874
16:38:21.031,89250,-0.88,-0.51,0.08,10.20,8875
16:38:21.038,89260,-0.89,-0.51,0.08,10.24,8876
16:38:21.044,89270,-0.86,-0.52,0.08,10.05,8877
16:38:21.054,89280,-0.83,-0.56,0.07,9.98,8878
16:38:21.070,89290,-0.80,-0.61,0.08,10.08,8879
16:38:21.076,89300,-0.78,-0.63,0.08,10.02,8880
16:38:21.091,89310,-0.77,-0.65,0.06,10.07,8881
16:38:21.096,89320,-0.80,-0.62,0.06,10.17,8882
16:38:21.105,89330,-0.86,-0.57,0.06,10.33,8883
16:38:21.117,89340,-0.91,-0.51,0.05,10.45,8884
16:38:21.126,89350,-0.94,-0.45,0.03,10.44,8885
16:38:21.140,89360,-0.96,-0.42,-0.01,10.48,8886
16:38:21.143,89370,-0.91,-0.46,-0.02,10.16,8887
16:38:21.157,89380,-0.89,-0.49,-0.04,10.15,8888
16:38:21.166,89390,-0.83,-0.55,-0.09,9.96,8889
16:38:21.177,89400,-0.79,-0.62,-0.08,10.12,8890
16:38:21.187,89410,-0.77,-0.66,-0.04,10.10,8891
16:38:21.205,89420,-0.72,-0.67,-0.04,9.89,8892
16:38:21.206,89430,-0.71,-0.67,-0.05,9.80,8893
16:38:21.222,89440,-0.74,-0.67,-0.01,9.99,8894
16:38:21.228,89450,-0.82,-0.63,0.02,10.33,8895
16:38:21.235,89460,-0.84,-0.59,0.05,10.27,8896
16:38:21.243,89470,-0.88,-0.52,0.10,10.28,8897
16:38:21.258,89480,-0.97,-0.47,0.18,10.90,8898
16:38:21.263,89490,-1.07,-0.38,0.23,11.59,8899
16:38:21.277,89500,-1.13,-0.34,0.22,12.00,8900
16:38:21.286,89510,-1.12,-0.42,0.20,12.14,8901
16:38:21.297,89520,-1.12,-0.74,0.13,13.48,8902
16:38:21.304,89530,-1.32,-0.57,0.17,14.50,8903
16:38:21.317,89540,-1.40,-0.36,0.11,14.52,8904
16:38:21.324,89550,-1.37,-0.25,0.06,13.97,8905
16:38:21.334,89560,-1.63,-0.12,-0.11,16.39,8906
16:38:21.346,89570,-1.87,-0.19,-0.08,18.83,8907
16:38:21.355,89580,-1.94,-0.33,-0.02,19.73,8908
16:38:21.365,89590,-1.70,-0.49,-0.04,17.66,8909
16:38:21.374,89600,-1.29,-0.77,-0.12,15.09,8910
16:38:21.386,89610,-0.93,-1.02,-0.01,13.82,8911
16:38:21.396,89620,-0.68,-1.27,0.18,14.48,8912
16:38:21.407,89630,-0.49,-1.39,0.52,15.60,8913
16:38:21.443,89640,-0.48,-1.47,0.63,16.68,8914
16:38:21.445,89650,-0.54,-1.41,0.75,16.89,8915
16:38:21.477,89660,-0.55,-1.22,0.83,15.75,8916
16:38:21.481,89670,-0.42,-0.88,0.90,13.33,8917
16:38:21.509,89680,-0.19,-0.81,1.24,14.96,8918
16:38:21.509,89690,-0.40,-0.52,1.36,15.12,8919
16:38:21.515,89700,-0.50,-0.23,1.15,12.73,8920
16:38:21.550,89710,-0.52,-0.08,0.95,10.88,8921
16:38:21.605,89720,-0.54,-0.09,0.82,9.87,8922
16:38:21.606,89730,-0.44,-0.37,0.67,8.82,8923
16:38:21.606,89740,-0.37,-0.68,0.55,9.56,8924
16:38:21.607,89750,-0.17,-0.90,0.56,10.74,8925
16:38:21.647,89760,0.03,-0.93,0.56,10.87,8926
16:38:21.647,89770,0.15,-0.88,0.50,10.27,8927
16:38:21.647,89780,0.09,-0.75,0.52,9.16,8928
16:38:21.647,89790,-0.04,-0.60,0.62,8.67,8929
16:38:21.648,89800,-0.16,-0.48,0.66,8.35,8930
16:38:21.649,89810,-0.24,-0.37,0.75,8.72,8931
16:38:21.651,89820,-0.25,-0.30,0.75,8.48,8932
16:38:21.678,89830,-0.17,-0.28,0.76,8.29,8933
16:38:21.682,89840,-0.09,-0.29,0.70,7.68,8934
16:38:21.682,89850,-0.13,-0.37,0.63,7.39,8935
16:38:21.682,89860,-0.15,-0.38,0.62,7.38,8936
16:38:21.682,89870,-0.28,-0.35,0.58,7.33,8937
16:38:21.682,89880,-0.34,-0.33,0.56,7.38,8938
16:38:21.682,89890,-0.34,-0.37,0.58,7.67,8939
16:38:21.683,89900,-0.30,-0.39,0.63,7.98,8940
16:38:21.684,89910,-0.27,-0.40,0.68,8.33,8941
16:38:21.693,89920,-0.32,-0.43,0.59,7.94,8942
16:38:21.704,89930,-0.44,-0.57,0.63,9.58,8943
16:38:21.716,89940,-0.56,-0.73,0.65,11.24,8944
16:38:21.726,89950,-0.58,-0.85,0.58,11.84,8945
16:38:21.737,89960,-0.52,-0.71,0.36,9.55,8946
16:38:21.748,89970,-0.54,-0.52,0.27,7.93,8947
16:38:21.757,89980,-0.79,-0.41,0.26,9.22,8948
16:38:21.766,89990,-0.88,-0.43,0.37,10.47,8949
16:38:21.775,90000,-0.82,-0.50,0.47,10.73,8950
16:38:21.787,90010,-0.79,-0.45,0.18,9.22,8951
16:38:21.793,90020,-0.67,-0.22,-0.26,7.48,8952
16:38:21.803,90030,-0.81,0.35,-0.46,9.94,8953
16:38:21.813,90040,-0.79,0.25,-0.67,10.61,8954
16:38:21.825,90050,-0.89,0.21,-0.82,12.24,8955
16:38:21.834,90060,-0.87,0.11,-0.87,12.39,8956
16:38:21.843,90070,-0.74,-0.05,-0.65,9.87,8957
16:38:21.857,90080,-0.61,-0.28,-0.32,7.45,8958
16:38:21.877,90090,-0.63,-0.51,-0.14,8.21,8959
16:38:21.878,90100,-0.64,-0.70,-0.00,9.53,8960
16:38:21.891,90110,-0.72,-0.79,-0.02,10.72,8961
16:38:21.893,90120,-0.98,-0.70,0.07,12.06,8962
16:38:21.912,90130,-1.48,-0.62,0.17,16.17,8963
16:38:21.913,90140,-1.85,-0.34,0.22,18.94,8964
16:38:21.928,90150,-1.84,0.03,0.15,18.45,8965
16:38:21.937,90160,-1.74,0.37,-0.01,17.80,8966
16:38:21.945,90170,-1.59,0.45,0.04,16.51,8967
16:38:21.956,90180,-1.20,-0.20,0.22,12.41,8968
16:38:21.967,90190,-0.71,-0.56,0.40,9.86,8969
16:38:21.976,90200,-0.38,-0.90,0.26,10.09,8970
16:38:21.985,90210,-0.30,-0.99,0.02,10.37,8971
16:38:21.994,90220,-0.30,-1.04,0.16,10.93,8972
16:38:22.003,90230,-0.56,-0.85,0.35,10.76,8973
16:38:22.017,90240,-0.74,-0.73,0.39,11.12,8974
16:38:22.027,90250,-0.80,-0.60,0.50,11.18,8975
16:38:22.038,90260,-0.88,-0.46,0.49,11.04,8976
16:38:22.045,90270,-0.98,-0.30,0.43,11.15,8977
16:38:22.057,90280,-0.92,-0.45,0.36,10.82,8978
16:38:22.066,90290,-0.78,-0.71,0.27,10.87,8979
16:38:22.075,90300,-0.69,-0.86,0.20,11.19,8980
16:38:22.086,90310,-0.64,-0.89,0.12,11.02,8981
16:38:22.094,90320,-0.62,-0.86,0.08,10.65,8982
16:38:22.106,90330,-0.61,-0.86,0.10,10.57,8983
16:38:22.117,90340,-0.66,-0.79,0.12,10.36,8984
16:38:22.128,90350,-0.70,-0.72,0.15,10.13,8985
16:38:22.139,90360,-0.79,-0.66,0.19,10.47,8986
16:38:22.144,90370,-0.85,-0.60,0.23,10.70,8987
16:38:22.179,90380,-0.90,-0.57,0.22,10.87,8988
16:38:22.179,90390,-0.91,-0.55,0.24,10.91,8989
16:38:22.182,90400,-0.87,-0.52,0.23,10.41,8990
16:38:22.183,90410,-0.84,-0.52,0.20,10.10,8991
16:38:22.221,90420,-0.83,-0.54,0.15,10.06,8992
16:38:22.221,90430,-0.82,-0.58,0.11,10.10,8993
16:38:22.222,90440,-0.80,-0.63,0.08,10.21,8994
16:38:22.223,90450,-0.78,-0.67,0.04,10.25,8995
16:38:22.262,90460,-0.74,-0.70,0.04,10.23,8996
16:38:22.262,90470,-0.73,-0.70,0.05,10.13,8997
16:38:22.263,90480,-0.78,-0.64,0.07,10.11,8998
16:38:22.264,90490,-0.80,-0.60,0.07,10.01,8999
16:38:22.300,90500,-0.83,-0.57,0.10,10.06,9000
16:38:22.300,90510,-0.86,-0.53,0.11,10.19,9001
16:38:22.302,90520,-0.88,-0.49,0.09,10.09,9002
16:38:22.304,90530,-0.88,-0.50,0.08,10.11,9003
16:38:22.341,90540,-0.85,-0.54,0.07,10.08,9004
16:38:22.343,90550,-0.84,-0.56,0.06,10.14,9005
16:38:22.343,90560,-0.83,-0.59,0.05,10.20,9006
16:38:22.344,90570,-0.82,-0.62,0.03,10.27,9007
16:38:22.377,90580,-0.81,-0.61,0.02,10.14,9008
16:38:22.378,90590,-0.80,-0.61,-0.00,10.08,9009
16:38:22.379,90600,-0.83,-0.58,0.00,10.12,9010
16:38:22.384,90610,-0.89,-0.52,-0.02,10.31,9011
16:38:22.396,90620,-0.90,-0.49,-0.03,10.22,9012
16:38:22.405,90630,-0.91,-0.50,-0.02,10.35,9013
16:38:22.414,90640,-0.91,-0.53,0.00,10.57,9014
16:38:22.423,90650,-0.90,-0.48,-0.01,10.18,9015
16:38:22.433,90660,-0.85,-0.49,-0.05,9.79,9016
16:38:22.449,90670,-0.80,-0.55,-0.04,9.71,9017
16:38:22.454,90680,-0.78,-0.64,0.00,10.02,9018
16:38:22.463,90690,-0.76,-0.68,0.01,10.20,9019
16:38:22.475,90700,-0.79,-0.64,0.02,10.13,9020
16:38:22.492,90710,-0.81,-0.60,0.07,10.14,9021
16:38:22.494,90720,-0.80,-0.60,0.10,10.10,9022
16:38:22.503,90730,-0.77,-0.62,0.09,9.92,9023
16:38:22.521,90740,-0.79,-0.62,0.08,10.07,9024
16:38:22.526,90750,-0.87,-0.59,0.12,10.53,9025
16:38:22.536,90760,-0.97,-0.48,0.18,10.95,9026
16:38:22.546,90770,-1.01,-0.43,0.19,11.16,9027
16:38:22.559,90780,-0.99,-0.45,0.16,10.96,9028
16:38:22.563,90790,-0.99,-0.46,0.09,10.93,9029
16:38:22.580,90800,-1.04,-0.45,0.05,11.39,9030
16:38:22.584,90810,-1.16,-0.56,0.00,12.93,9031
16:38:22.603,90820,-1.28,-0.70,0.02,14.62,9032
16:38:22.605,90830,-1.55,-0.59,0.02,16.55,9033
16:38:22.620,90840,-1.58,-0.46,-0.07,16.46,9034
16:38:22.624,90850,-1.68,-0.27,-0.23,17.21,9035
16:38:22.634,90860,-1.70,-0.24,-0.34,17.51,9036
16:38:22.643,90870,-1.69,-0.47,-0.16,17.62,9037
16:38:22.653,90880,-1.64,-0.68,0.01,17.78,9038
16:38:22.663,90890,-1.38,-0.88,0.06,16.31,9039
16:38:22.681,90900,-0.97,-1.03,0.12,14.22,9040
16:38:22.683,90910,-0.64,-1.13,0.21,13.14,9041
16:38:22.693,90920,-0.52,-1.39,0.63,16.11,9042
16:38:22.703,90930,-0.40,-1.45,0.79,16.95,9043
16:38:22.713,90940,-0.46,-1.41,0.85,17.10,9044
16:38:22.742,90950,-0.46,-1.24,0.96,16.31,9045
16:38:22.743,90960,-0.29,-1.12,1.48,18.80,9046
16:38:22.744,90970,-0.21,-0.66,1.51,16.64,9047
16:38:22.761,90980,-0.44,-0.47,1.31,14.64,9048
16:38:22.763,90990,-0.57,-0.23,1.08,12.48,9049
16:38:22.773,91000,-0.54,-0.14,0.94,10.91,9050
16:38:22.786,91010,-0.43,-0.28,0.72,8.81,9051
16:38:22.795,91020,-0.37,-0.51,0.55,8.35,9052
16:38:22.803,91030,-0.21,-0.74,0.53,9.31,9053
16:38:22.820,91040,0.01,-0.82,0.58,10.04,9054
16:38:22.824,91050,0.12,-0.85,0.58,10.33,9055
16:38:22.833,91060,0.16,-0.85,0.50,9.93,9056
16:38:22.890,91070,0.02,-0.69,0.58,8.99,9057
16:38:22.891,91080,-0.09,-0.54,0.68,8.72,9058
16:38:22.892,91090,-0.16,-0.45,0.72,8.67,9059
16:38:22.894,91100,-0.17,-0.39,0.75,8.64,9060
16:38:22.894,91110,-0.14,-0.26,0.80,8.49,9061
16:38:22.931,91120,-0.01,-0.20,0.77,8.00,9062
16:38:22.933,91130,0.08,-0.22,0.66,7.04,9063
16:38:22.936,91140,0.02,-0.29,0.65,7.09,9064
16:38:22.936,91150,-0.11,-0.31,0.59,6.72,9065
16:38:22.936,91160,-0.28,-0.28,0.57,6.97,9066
16:38:22.974,91170,-0.37,-0.29,0.61,7.67,9067
16:38:22.974,91180,-0.35,-0.30,0.64,7.91,9068
16:38:22.975,91190,-0.33,-0.30,0.72,8.53,9069
16:38:22.976,91200,-0.27,-0.29,0.75,8.53,9070
16:38:23.014,91210,-0.44,-0.45,0.67,9.16,9071
16:38:23.014,91220,-0.60,-0.75,0.74,12.08,9072
16:38:23.016,91230,-0.71,-0.87,0.55,12.55,9073
16:38:23.018,91240,-0.59,-0.73,0.32,9.88,9074
16:38:23.055,91250,-0.55,-0.60,0.19,8.33,9075
16:38:23.056,91260,-0.74,-0.48,0.25,9.16,9076
16:38:23.056,91270,-0.91,-0.48,0.28,10.66,9077
16:38:23.059,91280,-0.89,-0.51,0.35,10.84,9078
16:38:23.078,91290,-0.72,-0.43,0.21,8.64,9079
16:38:23.078,91300,-0.67,-0.11,-0.35,7.59,9080
16:38:23.083,91310,-0.87,0.43,-0.89,13.21,9081
16:38:23.093,91320,-0.74,0.32,-0.94,12.39,9082
16:38:23.103,91330,-0.85,0.17,-0.98,13.12,9083
16:38:23.113,91340,-0.78,0.07,-0.75,10.87,9084
16:38:23.125,91350,-0.71,-0.17,-0.48,8.79,9085
16:38:23.133,91360,-0.56,-0.38,-0.19,7.07,9086
16:38:23.143,91370,-0.42,-0.51,0.04,6.57,9087
16:38:23.153,91380,-0.57,-0.67,0.09,8.84,9088
16:38:23.169,91390,-0.75,-0.77,0.20,10.89,9089
16:38:23.173,91400,-1.07,-0.76,0.24,13.35,9090
16:38:23.195,91410,-1.52,-0.69,0.23,16.87,9091
16:38:23.195,91420,-1.82,-0.39,0.27,18.79,9092
16:38:23.206,91430,-1.86,-0.00,0.11,18.67,9093
16:38:23.215,91440,-1.70,0.21,-0.14,17.20,9094
16:38:23.223,91450,-1.56,0.38,-0.13,16.15,9095
16:38:23.236,91460,-1.17,-0.33,0.11,12.17,9096
16:38:23.243,91470,-0.72,-0.87,0.12,11.36,9097
16:38:23.254,91480,-0.42,-0.79,0.06,8.95,9098
16:38:23.263,91490,-0.32,-0.94,0.05,9.91,9099
16:38:23.280,91500,-0.38,-1.00,0.27,11.03,9100
16:38:23.283,91510,-0.64,-0.71,0.37,10.21,9101
16:38:23.300,91520,-0.72,-0.60,0.41,10.22,9102
16:38:23.303,91530,-0.84,-0.46,0.48,10.71,9103
16:38:23.319,91540,-0.92,-0.30,0.51,10.95,9104
16:38:23.324,91550,-1.10,-0.18,0.47,12.08,9105
16:38:23.335,91560,-0.93,-0.42,0.34,10.78,9106
16:38:23.345,91570,-0.74,-0.82,0.22,11.32,9107
16:38:23.356,91580,-0.60,-1.09,0.12,12.51,9108
16:38:23.367,91590,-0.44,-1.17,-0.02,12.53,9109
16:38:23.373,91600,-0.36,-1.16,-0.11,12.19,9110
16:38:23.389,91610,-0.43,-0.98,-0.01,10.74,9111
16:38:23.396,91620,-0.58,-0.80,0.14,10.01,9112
16:38:23.406,91630,-0.70,-0.70,0.23,10.22,9113
16:38:23.417,91640,-0.86,-0.54,0.28,10.56,9114
16:38:23.430,91650,-0.99,-0.44,0.34,11.38,9115
16:38:23.435,91660,-1.06,-0.37,0.39,11.90,9116
16:38:23.443,91670,-1.05,-0.31,0.38,11.59,9117
16:38:23.454,91680,-0.92,-0.42,0.30,10.56,9118
16:38:23.470,91690,-0.80,-0.55,0.20,9.92,9119
16:38:23.474,91700,-0.74,-0.66,0.14,10.00,9120
16:38:23.490,91710,-0.73,-0.70,0.12,10.16,9121
16:38:23.493,91720,-0.71,-0.77,0.10,10.46,9122
16:38:23.507,91730,-0.70,-0.78,0.09,10.53,9123
16:38:23.516,91740,-0.70,-0.76,0.08,10.35,9124
16:38:23.525,91750,-0.70,-0.70,0.06,9.94,9125
16:38:23.536,91760,-0.73,-0.65,0.07,9.82,9126
16:38:23.547,91770,-0.77,-0.61,0.07,9.83,9127
16:38:23.554,91780,-0.84,-0.55,0.10,10.05,9128
16:38:23.568,91790,-0.90,-0.48,0.12,10.33,9129
16:38:23.576,91800,-0.92,-0.46,0.13,10.40,9130
16:38:23.586,91810,-0.88,-0.49,0.13,10.14,9131
16:38:23.598,91820,-0.86,-0.50,0.09,9.95,9132
16:38:23.603,91830,-0.84,-0.54,0.09,10.00,9133
16:38:23.613,91840,-0.83,-0.59,0.08,10.19,9134
16:38:23.628,91850,-0.80,-0.62,0.10,10.18,9135
16:38:23.682,91860,-0.80,-0.63,0.08,10.23,9136
16:38:23.683,91870,-0.83,-0.56,0.10,10.02,9137
16:38:23.684,91880,-0.89,-0.50,0.11,10.25,9138
16:38:23.684,91890,-0.91,-0.49,0.12,10.40,9139
16:38:23.685,91900,-0.92,-0.48,0.12,10.46,9140
16:38:23.686,91910,-0.93,-0.45,0.06,10.37,9141
16:38:23.724,91920,-0.89,-0.46,-0.01,10.00,9142
16:38:23.726,91930,-0.79,-0.48,-0.03,9.20,9143
16:38:23.728,91940,-0.88,-0.56,-0.22,10.66,9144
16:38:23.728,91950,-0.76,-0.67,-0.16,10.25,9145
16:38:23.765,91960,-0.76,-0.69,-0.10,10.37,9146
16:38:23.765,91970,-0.77,-0.65,-0.09,10.14,9147
16:38:23.765,91980,-0.78,-0.63,-0.06,9.99,9148
16:38:23.767,91990,-0.79,-0.61,-0.05,9.98,9149
16:38:23.805,92000,-0.76,-0.59,-0.02,9.67,9150
16:38:23.805,92010,-0.77,-0.59,0.03,9.71,9151
16:38:23.807,92020,-0.82,-0.58,0.09,10.07,9152
16:38:23.808,92030,-0.92,-0.52,0.15,10.66,9153
16:38:23.838,92040,-1.01,-0.41,0.18,11.07,9154
16:38:23.839,92050,-1.06,-0.35,0.17,11.30,9155
16:38:23.840,92060,-1.07,-0.40,0.13,11.48,9156
16:38:23.843,92070,-1.04,-0.63,0.10,12.24,9157
16:38:23.870,92080,-1.21,-0.63,0.19,13.71,9158
16:38:23.874,92090,-1.53,-0.48,0.07,16.09,9159
16:38:23.874,92100,-1.63,-0.30,-0.05,16.58,9160
16:38:23.883,92110,-1.61,-0.20,-0.02,16.27,9161
16:38:23.893,92120,-1.76,-0.32,-0.04,17.92,9162
16:38:23.903,92130,-1.90,-0.52,0.02,19.68,9163
16:38:23.915,92140,-1.84,-0.59,0.06,19.32,9164
16:38:23.924,92150,-1.46,-0.68,0.03,16.13,9165
16:38:23.939,92160,-1.03,-0.91,0.05,13.77,9166
16:38:23.943,92170,-0.76,-1.17,0.21,14.11,9167
16:38:23.958,92180,-0.63,-1.44,0.75,17.42,9168
16:38:23.964,92190,-0.52,-1.55,0.79,18.16,9169
16:38:23.982,92200,-0.59,-1.48,0.77,17.71,9170
16:38:23.992,92210,-0.51,-1.34,0.84,16.62,9171
16:38:23.995,92220,-0.31,-1.07,1.28,17.00,9172
16:38:24.023,92230,-0.14,-0.76,1.41,16.09,9173
16:38:24.023,92240,-0.29,-0.53,1.34,14.72,9174
16:38:24.025,92250,-0.50,-0.26,1.16,12.86,9175
16:38:24.041,92260,-0.52,-0.08,0.97,11.00,9176
16:38:24.045,92270,-0.48,-0.06,0.70,8.50,9177
16:38:24.054,92280,-0.42,-0.38,0.55,7.89,9178
16:38:24.066,92290,-0.28,-0.67,0.52,8.94,9179
16:38:24.076,92300,-0.04,-0.87,0.50,10.00,9180
16:38:24.088,92310,0.10,-0.91,0.52,10.53,9181
16:38:24.097,92320,0.22,-0.89,0.51,10.51,9182
16:38:24.105,92330,0.10,-0.70,0.54,8.90,9183
16:38:24.114,92340,-0.09,-0.51,0.59,7.87,9184
16:38:24.124,92350,-0.18,-0.46,0.70,8.55,9185
16:38:24.133,92360,-0.22,-0.45,0.78,9.25,9186
16:38:24.145,92370,-0.20,-0.30,0.80,8.76,9187
16:38:24.159,92380,-0.09,-0.21,0.72,7.57,9188
16:38:24.198,92390,0.03,-0.29,0.66,7.20,9189
16:38:24.199,92400,0.04,-0.37,0.62,7.29,9190
16:38:24.199,92410,-0.12,-0.34,0.57,6.71,9191
16:38:24.202,92420,-0.26,-0.29,0.56,6.83,9192
16:38:24.204,92430,-0.37,-0.28,0.61,7.65,9193
16:38:24.213,92440,-0.40,-0.23,0.63,7.78,9194
16:38:24.225,92450,-0.42,-0.20,0.69,8.30,9195
16:38:24.244,92460,-0.41,-0.28,0.76,9.10,9196
16:38:24.245,92470,-0.51,-0.57,0.71,10.39,9197
16:38:24.255,92480,-0.60,-0.86,0.56,11.87,9198
16:38:24.264,92490,-0.68,-0.96,0.39,12.42,9199
16:38:24.273,92500,-0.60,-0.82,0.24,10.45,9200
16:38:24.288,92510,-0.62,-0.52,0.17,8.27,9201
16:38:24.294,92520,-0.77,-0.36,0.19,8.72,9202
16:38:24.309,92530,-0.91,-0.43,0.22,10.30,9203
16:38:24.314,92540,-0.70,-0.42,0.23,8.45,9204
16:38:24.323,92550,-0.51,-0.26,-0.07,5.73,9205
16:38:24.340,92560,-0.58,0.07,-0.59,8.28,9206
16:38:24.343,92570,-0.78,0.32,-1.02,13.19,9207
16:38:24.383,92580,-0.90,0.48,-0.99,14.24,9208
16:38:24.385,92590,-0.86,0.24,-0.73,11.52,9209
16:38:24.385,92600,-0.71,-0.12,-0.53,8.94,9210
16:38:24.422,92610,-0.52,-0.46,-0.28,7.50,9211
16:38:24.422,92620,-0.43,-0.80,-0.07,9.11,9212
16:38:24.423,92630,-0.50,-0.95,0.02,10.78,9213
16:38:24.426,92640,-0.63,-0.93,0.02,11.24,9214
16:38:24.507,92650,-1.06,-0.77,0.11,13.16,9215
16:38:24.507,92660,-1.66,-0.63,0.20,17.92,9216
16:38:24.508,92670,-2.04,-0.22,0.23,20.69,9217
16:38:24.509,92680,-2.02,0.15,0.07,20.23,9218
16:38:24.510,92690,-1.73,0.47,-0.17,18.00,9219
16:38:24.513,92700,-1.45,0.40,0.04,15.04,9220
16:38:24.548,92710,-1.01,-0.27,0.17,10.55,9221
16:38:24.549,92720,-0.56,-0.67,0.34,9.36,9222
16:38:24.550,92730,-0.51,-0.89,0.17,10.46,9223
16:38:24.550,92740,-0.35,-1.01,0.19,10.87,9224
16:38:24.550,92750,-0.26,-1.11,0.45,12.27,9225
16:38:24.552,92760,-0.51,-1.08,0.28,12.22,9226
16:38:24.553,92770,-0.54,-0.73,0.48,10.29,9227
16:38:24.574,92780,-0.72,-0.53,0.56,10.55,9228
16:38:24.577,92790,-0.97,-0.31,0.50,11.32,9229
16:38:24.579,92800,-1.13,-0.25,0.41,12.28,9230
16:38:24.584,92810,-0.90,-0.57,0.24,10.91,9231
16:38:24.596,92820,-0.72,-0.92,0.12,11.72,9232
16:38:24.609,92830,-0.58,-1.08,0.04,12.29,9233
16:38:24.617,92840,-0.44,-1.07,-0.01,11.60,9234
16:38:24.625,92850,-0.45,-0.96,-0.05,10.60,9235
16:38:24.633,92860,-0.61,-0.74,0.11,9.63,9236
16:38:24.653,92870,-0.70,-0.66,0.20,9.80,9237
16:38:24.653,92880,-0.83,-0.53,0.29,10.27,9238
16:38:24.671,92890,-0.94,-0.41,0.34,10.76,9239
16:38:24.674,92900,-1.02,-0.34,0.34,11.24,9240
16:38:24.691,92910,-1.07,-0.32,0.36,11.74,9241
16:38:24.693,92920,-0.98,-0.41,0.31,11.07,9242
16:38:24.711,92930,-0.87,-0.46,0.23,10.10,9243
16:38:24.714,92940,-0.76,-0.64,0.15,10.05,9244
16:38:24.727,92950,-0.72,-0.71,0.16,10.29,9245
16:38:24.733,92960,-0.74,-0.72,0.13,10.35,9246
16:38:24.743,92970,-0.73,-0.74,0.13,10.47,9247
16:38:24.754,92980,-0.72,-0.75,0.12,10.45,9248
16:38:24.770,92990,-0.72,-0.72,0.14,10.26,9249
16:38:24.773,93000,-0.72,-0.68,0.15,10.03,9250
16:38:24.786,93010,-0.72,-0.66,0.13,9.87,9251
16:38:24.797,93020,-0.75,-0.63,0.11,9.84,9252
16:38:24.808,93030,-0.80,-0.59,0.11,9.98,9253
16:38:24.816,93040,-0.87,-0.53,0.12,10.23,9254
16:38:24.823,93050,-0.90,-0.45,0.09,10.10,9255
16:38:24.841,93060,-0.93,-0.42,0.11,10.27,9256
16:38:24.843,93070,-0.92,-0.42,0.13,10.17,9257
16:38:24.860,93080,-0.88,-0.47,0.10,10.05,9258
16:38:24.865,93090,-0.82,-0.55,0.05,9.90,9259
16:38:24.873,93100,-0.77,-0.64,0.03,10.02,9260
16:38:24.889,93110,-0.75,-0.69,0.02,10.18,9261
16:38:24.893,93120,-0.79,-0.66,0.01,10.26,9262
16:38:24.904,93130,-0.82,-0.61,0.04,10.25,9263
16:38:24.913,93140,-0.84,-0.56,0.08,10.15,9264
16:38:24.924,93150,-0.88,-0.52,0.12,10.30,9265
16:38:24.934,93160,-0.88,-0.49,0.12,10.15,9266
16:38:24.945,93170,-0.85,-0.50,0.12,9.94,9267
16:38:24.954,93180,-0.80,-0.52,0.06,9.56,9268
16:38:24.965,93190,-0.83,-0.54,0.01,9.90,9269
16:38:24.974,93200,-0.81,-0.58,0.02,9.97,9270
16:38:24.985,93210,-0.82,-0.62,0.06,10.26,9271
16:38:24.995,93220,-0.80,-0.61,0.05,10.12,9272
16:38:25.003,93230,-0.79,-0.65,0.03,10.25,9273
16:38:25.020,93240,-0.77,-0.68,0.03,10.24,9274
16:38:25.025,93250,-0.77,-0.66,0.02,10.15,9275
16:38:25.037,93260,-0.80,-0.59,0.04,9.97,9276
16:38:25.047,93270,-0.89,-0.54,0.08,10.43,9277
16:38:25.053,93280,-0.97,-0.48,0.17,10.96,9278
16:38:25.065,93290,-1.02,-0.47,0.20,11.36,9279
16:38:25.080,93300,-1.03,-0.49,0.16,11.49,9280
16:38:25.084,93310,-1.05,-0.46,0.18,11.57,9281
16:38:25.093,93320,-1.08,-0.61,0.11,12.47,9282
16:38:25.103,93330,-1.19,-0.65,0.20,13.71,9283
16:38:25.114,93340,-1.41,-0.49,0.14,15.00,9284
16:38:25.167,93350,-1.52,-0.33,-0.05,15.53,9285
16:38:25.167,93360,-1.55,-0.20,-0.12,15.62,9286
16:38:25.168,93370,-1.76,-0.31,-0.21,17.94,9287
16:38:25.169,93380,-1.84,-0.50,-0.19,19.17,9288
16:38:25.170,93390,-1.73,-0.56,-0.10,18.24,9289
16:38:25.208,93400,-1.42,-0.70,-0.11,15.84,9290
16:38:25.209,93410,-1.02,-0.96,-0.02,14.01,9291
16:38:25.210,93420,-0.74,-1.14,0.16,13.75,9292
16:38:25.211,93430,-0.60,-1.33,0.45,15.29,9293
16:38:25.251,93440,-0.57,-1.29,0.62,15.40,9294
16:38:25.251,93450,-0.64,-1.30,0.74,16.25,9295
16:38:25.252,93460,-0.64,-1.13,0.84,15.48,9296
16:38:25.254,93470,-0.67,-0.97,1.05,15.76,9297
16:38:25.254,93480,-0.23,-0.82,1.21,14.81,9298
16:38:25.283,93490,-0.22,-0.57,1.39,15.19,9299
16:38:25.283,93500,-0.37,-0.34,1.20,13.02,9300
16:38:25.286,93510,-0.46,-0.18,0.96,10.80,9301
16:38:25.323,93520,-0.49,-0.15,0.81,9.59,9302
16:38:25.325,93530,-0.45,-0.39,0.71,9.30,9303
16:38:25.325,93540,-0.38,-0.64,0.64,9.82,9304
16:38:25.326,93550,-0.18,-0.88,0.62,10.94,9305
16:38:25.364,93560,0.05,-0.89,0.60,10.77,9306
16:38:25.364,93570,0.16,-0.86,0.51,10.15,9307
16:38:25.366,93580,0.19,-0.76,0.55,9.59,9308
16:38:25.368,93590,0.01,-0.57,0.57,8.04,9309
16:38:25.384,93600,-0.12,-0.41,0.70,8.22,9310
16:38:25.385,93610,-0.20,-0.39,0.75,8.67,9311
16:38:25.396,93620,-0.21,-0.36,0.76,8.65,9312
16:38:25.406,93630,-0.13,-0.32,0.75,8.29,9313
16:38:25.416,93640,-0.06,-0.35,0.70,7.86,9314
16:38:25.427,93650,-0.06,-0.37,0.64,7.40,9315
16:38:25.434,93660,-0.14,-0.36,0.60,7.10,9316
16:38:25.476,93670,-0.23,-0.31,0.59,7.06,9317
16:38:25.476,93680,-0.35,-0.28,0.61,7.57,9318
16:38:25.478,93690,-0.37,-0.29,0.63,7.81,9319
16:38:25.480,93700,-0.33,-0.36,0.66,8.21,9320
16:38:25.483,93710,-0.33,-0.41,0.59,7.93,9321
16:38:25.493,93720,-0.40,-0.49,0.58,8.59,9322
16:38:25.503,93730,-0.47,-0.64,0.55,9.63,9323
16:38:25.515,93740,-0.54,-0.72,0.50,10.26,9324
16:38:25.525,93750,-0.57,-0.77,0.42,10.45,9325
16:38:25.534,93760,-0.58,-0.70,0.35,9.76,9326
16:38:25.543,93770,-0.63,-0.66,0.32,9.68,9327
16:38:25.553,93780,-0.73,-0.58,0.32,9.88,9328
16:38:25.563,93790,-0.77,-0.52,0.34,9.91,9329
16:38:25.574,93800,-0.85,-0.49,0.26,10.19,9330
16:38:25.591,93810,-0.81,-0.27,0.06,8.56,9331
16:38:25.593,93820,-0.77,-0.09,-0.26,8.19,9332
16:38:25.607,93830,-0.82,0.20,-0.43,9.47,9333
16:38:25.617,93840,-0.88,0.23,-0.73,11.64,9334
16:38:25.624,93850,-0.93,0.20,-0.97,13.59,9335
16:38:25.637,93860,-0.86,0.11,-0.89,12.40,9336
16:38:25.646,93870,-0.75,-0.06,-0.64,9.86,9337
16:38:25.654,93880,-0.62,-0.36,-0.35,8.01,9338
16:38:25.663,93890,-0.47,-0.53,-0.12,7.21,9339
16:38:25.675,93900,-0.43,-0.61,0.03,7.45,9340
16:38:25.684,93910,-0.69,-0.77,0.11,10.39,9341
16:38:25.694,93920,-0.91,-0.88,0.23,12.84,9342
16:38:25.710,93930,-1.25,-0.68,0.30,14.56,9343
16:38:25.716,93940,-1.63,-0.39,0.27,16.98,9344
16:38:25.725,93950,-1.82,-0.06,0.20,18.28,9345
16:38:25.740,93960,-1.80,0.30,0.02,18.21,9346
16:38:25.748,93970,-1.78,0.49,-0.06,18.51,9347
