time,timestamps,ax,ay,az,mag,time2
15:43:18.882,41695,-0.94,-0.49,-0.35,11.17,4121
15:43:18.894,41705,-0.96,-0.48,-0.38,11.43,4122
15:43:18.906,41715,-0.98,-0.46,-0.40,11.55,4123
15:43:18.921,41725,-0.99,-0.41,-0.40,11.40,4124
15:43:18.921,41735,-1.01,-0.41,-0.41,11.65,4125
15:43:18.957,41745,-1.01,-0.42,-0.40,11.69,4126
15:43:18.958,41755,-0.99,-0.45,-0.40,11.59,4127
15:43:18.974,41765,-0.98,-0.46,-0.41,11.52,4128
15:43:18.975,41775,-0.98,-0.44,-0.40,11.45,4129
15:43:18.975,41785,-0.99,-0.44,-0.38,11.50,4130
15:43:18.984,41795,-0.99,-0.45,-0.36,11.49,4131
15:43:18.992,41805,-0.99,-0.46,-0.31,11.41,4132
15:43:19.002,41815,-0.98,-0.48,-0.27,11.26,4133
15:43:19.013,41825,-0.98,-0.48,-0.23,11.10,4134
15:43:19.022,41835,-1.01,-0.44,-0.17,11.13,4135
15:43:19.032,41845,-1.03,-0.46,-0.14,11.35,4136
15:43:19.041,41855,-1.00,-0.48,-0.12,11.13,4137
15:43:19.051,41865,-0.95,-0.47,-0.12,10.63,4138
15:43:19.062,41875,-0.93,-0.45,-0.12,10.39,4139
15:43:19.072,41885,-0.96,-0.43,-0.13,10.59,4140
15:43:19.091,41895,-0.99,-0.40,-0.12,10.77,4141
15:43:19.091,41905,-1.01,-0.40,-0.14,11.01,4142
15:43:19.110,41915,-1.00,-0.45,-0.17,11.12,4143
15:43:19.111,41925,-1.01,-0.46,-0.21,11.34,4144
15:43:19.164,41935,-1.06,-0.47,-0.22,11.75,4145
15:43:19.164,41945,-1.10,-0.48,-0.24,12.31,4146
15:43:19.164,41955,-1.15,-0.54,-0.25,12.90,4147
15:43:19.166,41965,-1.15,-0.57,-0.21,12.99,4148
15:43:19.167,41975,-1.06,-0.58,-0.12,12.16,4149
15:43:19.200,41985,-1.00,-0.63,-0.09,11.84,4150
15:43:19.201,41995,-0.95,-0.69,-0.02,11.73,4151
15:43:19.202,42005,-0.97,-0.80,0.02,12.57,4152
15:43:19.203,42015,-1.01,-1.02,0.18,14.46,4153
15:43:19.242,42025,-0.95,-1.20,0.28,15.56,4154
15:43:19.242,42035,-1.02,-1.00,0.63,15.60,4155
15:43:19.243,42045,-0.88,-1.13,0.57,15.46,4156
15:43:19.244,42055,-1.07,-0.93,-0.01,14.17,4157
15:43:19.283,42065,-1.21,-0.67,0.07,13.85,4158
15:43:19.283,42075,-1.21,-0.35,-0.19,12.80,4159
15:43:19.284,42085,-1.34,-0.28,-0.72,15.48,4160
15:43:19.286,42095,-1.42,-0.30,-0.99,17.56,4161
15:43:19.324,42105,-1.64,-0.49,-1.03,20.00,4162
15:43:19.324,42115,-1.78,-0.39,-1.11,21.30,4163
15:43:19.326,42125,-1.85,-0.23,-0.92,20.80,4164
15:43:19.327,42135,-1.66,0.27,-1.31,21.33,4165
15:43:19.350,42145,-1.58,0.31,-1.19,20.05,4166
15:43:19.350,42155,-1.15,0.01,-1.16,16.29,4167
15:43:19.351,42165,-0.92,-0.24,-1.14,14.83,4168
15:43:19.366,42175,-0.84,-0.32,-1.39,16.51,4169
15:43:19.375,42185,-0.80,-0.51,-1.24,15.63,4170
15:43:19.385,42195,-0.82,-0.48,-1.16,14.96,4171
15:43:19.394,42205,-0.80,-0.35,-1.10,14.11,4172
15:43:19.402,42215,-0.77,-0.20,-1.06,13.28,4173
15:43:19.412,42225,-0.73,-0.13,-1.07,13.03,4174
15:43:19.430,42235,-0.70,-0.07,-1.11,13.15,4175
15:43:19.430,42245,-0.67,-0.04,-1.15,13.31,4176
15:43:19.444,42255,-0.61,-0.05,-1.16,13.14,4177
15:43:19.452,42265,-0.55,-0.10,-1.19,13.18,4178
15:43:19.475,42275,-0.50,-0.17,-1.18,12.92,4179
15:43:19.475,42285,-0.51,-0.16,-1.16,12.81,4180
15:43:19.481,42295,-0.53,-0.16,-1.16,12.86,4181
15:43:19.499,42305,-0.59,-0.13,-1.16,13.02,4182
15:43:19.502,42315,-0.62,-0.07,-1.14,12.99,4183
15:43:19.515,42325,-0.64,-0.02,-1.14,13.03,4184
15:43:19.522,42335,-0.66,-0.01,-1.14,13.19,4185
15:43:19.536,42345,-0.69,-0.08,-1.16,13.52,4186
15:43:19.545,42355,-0.64,-0.13,-1.11,12.89,4187
15:43:19.551,42365,-0.61,-0.22,-1.10,12.74,4188
15:43:19.563,42375,-0.58,-0.33,-1.05,12.45,4189
15:43:19.571,42385,-0.56,-0.40,-1.00,12.18,4190
15:43:19.582,42395,-0.59,-0.42,-0.94,11.88,4191
15:43:19.591,42405,-0.70,-0.32,-0.96,12.32,4192
15:43:19.602,42415,-0.89,-0.27,-0.98,13.51,4193
15:43:19.613,42425,-1.01,-0.20,-0.98,14.23,4194
15:43:19.623,42435,-1.10,-0.13,-0.92,14.37,4195
15:43:19.634,42445,-1.13,-0.07,-0.85,14.17,4196
15:43:19.642,42455,-1.09,-0.01,-0.78,13.35,4197
15:43:19.652,42465,-1.05,-0.09,-0.76,12.98,4198
15:43:19.661,42475,-0.89,-0.23,-0.51,10.54,4199
15:43:19.671,42485,-0.73,-0.44,-0.41,9.43,4200
15:43:19.689,42495,-0.74,-0.67,-0.29,10.46,4201
15:43:19.689,42505,-0.95,-0.64,-0.32,11.90,4202
15:43:19.701,42515,-1.11,-0.34,-0.34,12.07,4203
15:43:19.715,42525,-0.97,-0.31,-0.15,10.28,4204
15:43:19.722,42535,-0.22,-0.34,0.28,4.88,4205
15:43:19.732,42545,0.05,-0.59,0.67,8.95,4206
15:43:19.741,42555,0.28,-0.69,0.78,10.82,4207
15:43:19.751,42565,-0.07,-0.59,0.52,7.93,4208
15:43:19.761,42575,-1.22,-0.62,-1.44,19.84,4209
15:43:19.773,42585,-1.02,-0.65,0.05,12.08,4210
15:43:19.784,42595,-0.72,-0.01,-0.08,7.20,4211
15:43:19.793,42605,-1.15,0.06,-0.55,12.77,4212
15:43:19.802,42615,-1.31,-0.55,-0.38,14.67,4213
15:43:19.815,42625,-1.43,-1.37,-0.45,20.36,4214
15:43:19.826,42635,-1.33,-2.00,-0.27,24.22,4215
15:43:19.836,42645,-1.08,-1.43,0.16,18.02,4216
15:43:19.842,42655,-1.02,-1.00,0.05,14.31,4217
15:43:19.851,42665,-1.28,-0.66,-0.25,14.63,4218
15:43:19.860,42675,-1.55,0.11,-0.27,15.72,4219
15:43:19.872,42685,-1.67,0.34,-0.50,17.79,4220
15:43:19.887,42695,-1.49,-0.16,-0.83,17.11,4221
15:43:19.942,42705,-1.17,-0.86,-0.82,16.67,4222
15:43:19.942,42715,-0.87,-1.27,-0.77,17.21,4223
15:43:19.943,42725,-0.67,-1.13,-0.55,14.26,4224
15:43:19.945,42735,-0.73,-0.58,-0.32,9.84,4225
15:43:19.946,42745,-1.01,-0.05,-0.10,10.14,4226
15:43:19.979,42755,-1.21,0.19,0.00,12.25,4227
15:43:19.982,42765,-1.17,-0.02,0.03,11.75,4228
15:43:19.982,42775,-1.08,-0.43,0.22,11.82,4229
15:43:19.982,42785,-0.81,-0.69,0.15,10.74,4230
15:43:19.984,42795,-0.72,-0.78,0.13,10.66,4231
15:43:20.021,42805,-0.74,-0.67,0.13,10.08,4232
15:43:20.021,42815,-0.84,-0.60,0.09,10.34,4233
15:43:20.022,42825,-0.92,-0.55,0.08,10.73,4234
15:43:20.023,42835,-0.94,-0.46,0.07,10.46,4235
15:43:20.060,42845,-0.93,-0.43,0.02,10.25,4236
15:43:20.060,42855,-0.94,-0.45,-0.03,10.46,4237
15:43:20.062,42865,-0.96,-0.46,-0.05,10.65,4238
15:43:20.063,42875,-0.96,-0.49,-0.07,10.76,4239
15:43:20.102,42885,-0.96,-0.46,-0.09,10.71,4240
15:43:20.102,42895,-0.98,-0.45,-0.11,10.87,4241
15:43:20.103,42905,-0.99,-0.43,-0.12,10.84,4242
15:43:20.105,42915,-1.00,-0.43,-0.13,10.91,4243
15:43:20.129,42925,-0.99,-0.45,-0.15,10.96,4244
15:43:20.129,42935,-0.97,-0.46,-0.16,10.83,4245
15:43:20.133,42945,-0.94,-0.49,-0.20,10.82,4246
15:43:20.141,42955,-0.90,-0.51,-0.20,10.56,4247
15:43:20.151,42965,-0.90,-0.54,-0.20,10.71,4248
15:43:20.162,42975,-0.91,-0.56,-0.19,10.83,4249
15:43:20.174,42985,-0.92,-0.52,-0.18,10.73,4250
15:43:20.182,42995,-0.78,-0.51,-0.09,9.37,4251
15:43:20.193,43005,-0.91,-0.42,-0.19,10.23,4252
15:43:20.203,43015,-0.99,-0.40,-0.26,11.00,4253
15:43:20.212,43025,-1.00,-0.42,-0.33,11.37,4254
15:43:20.228,43035,-1.02,-0.44,-0.37,11.70,4255
15:43:20.231,43045,-0.98,-0.47,-0.37,11.51,4256
15:43:20.250,43055,-0.96,-0.49,-0.37,11.45,4257
15:43:20.262,43065,-0.97,-0.50,-0.36,11.51,4258
15:43:20.263,43075,-0.98,-0.50,-0.29,11.34,4259
15:43:20.273,43085,-1.01,-0.44,-0.26,11.37,4260
15:43:20.284,43095,-1.03,-0.43,-0.25,11.42,4261
15:43:20.295,43105,-0.99,-0.45,-0.19,11.05,4262
15:43:20.313,43115,-0.98,-0.45,-0.15,10.94,4263
15:43:20.321,43125,-0.99,-0.47,-0.13,11.08,4264
15:43:20.322,43135,-1.00,-0.45,-0.07,10.95,4265
15:43:20.340,43145,-0.96,-0.44,-0.03,10.59,4266
15:43:20.341,43155,-0.91,-0.49,-0.01,10.39,4267
15:43:20.351,43165,-0.89,-0.48,-0.01,10.09,4268
15:43:20.361,43175,-0.88,-0.48,0.02,10.03,4269
15:43:20.371,43185,-0.92,-0.47,0.01,10.30,4270
15:43:20.391,43195,-0.93,-0.46,0.02,10.37,4271
15:43:20.391,43205,-0.92,-0.43,0.02,10.12,4272
15:43:20.408,43215,-0.93,-0.40,0.10,10.16,4273
15:43:20.412,43225,-0.84,-0.46,0.04,9.61,4274
15:43:20.421,43235,-0.82,-0.41,0.15,9.27,4275
15:43:20.434,43245,-0.87,-0.49,0.08,9.99,4276
15:43:20.441,43255,-0.85,-0.60,0.05,10.45,4277
15:43:20.452,43265,-0.85,-0.73,-0.02,11.25,4278
15:43:20.462,43275,-0.78,-0.89,-0.05,11.89,4279
15:43:20.471,43285,-0.74,-1.02,-0.06,12.59,4280
15:43:20.481,43295,-0.75,-1.03,-0.08,12.77,4281
15:43:20.492,43305,-0.77,-1.00,-0.09,12.63,4282
15:43:20.508,43315,-0.83,-0.90,-0.17,12.33,4283
15:43:20.511,43325,-0.96,-0.79,-0.29,12.79,4284
15:43:20.521,43335,-1.12,-0.75,-0.51,14.41,4285
15:43:20.532,43345,-1.19,-0.61,-0.73,15.18,4286
15:43:20.542,43355,-1.27,-0.40,-0.93,16.28,4287
15:43:20.558,43365,-1.28,-0.29,-0.89,15.90,4288
15:43:20.561,43375,-1.16,-0.33,-0.73,14.08,4289
15:43:20.571,43385,-1.04,-0.13,-1.06,14.86,4290
15:43:20.584,43395,-1.04,-0.25,-1.16,15.79,4291
15:43:20.594,43405,-0.95,-0.17,-1.38,16.80,4292
15:43:20.603,43415,-1.04,-0.26,-1.04,14.93,4293
15:43:20.614,43425,-0.87,-0.32,-1.03,13.85,4294
15:43:20.621,43435,-0.83,-0.13,-0.91,12.41,4295
15:43:20.631,43445,-0.85,-0.14,-0.97,12.92,4296
15:43:20.641,43455,-0.84,-0.17,-0.99,13.09,4297
15:43:20.655,43465,-0.84,-0.23,-1.00,13.27,4298
15:43:20.695,43475,-0.86,-0.22,-0.97,13.21,4299
15:43:20.695,43485,-0.88,-0.22,-0.95,13.16,4300
15:43:20.696,43495,-0.89,-0.25,-0.96,13.31,4301
15:43:20.698,43505,-0.89,-0.30,-0.97,13.48,4302
15:43:20.700,43515,-0.89,-0.31,-0.98,13.60,4303
15:43:20.734,43525,-0.88,-0.31,-0.99,13.57,4304
15:43:20.734,43535,-0.84,-0.29,-0.97,13.15,4305
15:43:20.735,43545,-0.83,-0.27,-0.94,12.82,4306
15:43:20.776,43555,-0.86,-0.25,-0.91,12.79,4307
15:43:20.776,43565,-0.90,-0.24,-0.91,13.02,4308
15:43:20.777,43575,-0.95,-0.24,-0.91,13.41,4309
15:43:20.779,43585,-1.00,-0.25,-0.92,13.83,4310
15:43:20.781,43595,-0.99,-0.28,-0.92,13.77,4311
15:43:20.816,43605,-0.94,-0.31,-0.92,13.46,4312
15:43:20.817,43615,-0.92,-0.38,-0.90,13.39,4313
15:43:20.819,43625,-0.91,-0.40,-0.91,13.49,4314
15:43:20.821,43635,-0.97,-0.56,-0.65,12.95,4315
15:43:20.859,43645,-0.92,-0.69,-0.68,13.40,4316
15:43:20.859,43655,-0.94,-0.73,-0.43,12.70,4317
15:43:20.861,43665,-0.92,-0.41,-0.53,11.38,4318
15:43:20.862,43675,-0.76,-0.22,-0.63,10.11,4319
15:43:20.901,43685,-0.61,-0.07,-0.60,8.59,4320
15:43:20.901,43695,-0.58,-0.16,-0.48,7.74,4321
15:43:20.902,43705,-0.65,-0.14,-0.54,8.58,4322
15:43:20.903,43715,-0.73,-0.15,-0.51,9.06,4323
15:43:20.927,43725,-0.80,-0.32,-0.41,9.59,4324
15:43:20.928,43735,-1.03,-0.56,-0.31,12.15,4325
15:43:20.931,43745,-1.10,-0.74,-0.56,14.38,4326
15:43:20.951,43755,-1.15,-0.94,-0.33,15.22,4327
15:43:20.951,43765,-0.91,-0.41,-0.04,10.00,4328
15:43:20.962,43775,-0.72,-0.41,-0.11,8.34,4329
