time,timestamp,ax,ay,az,mag,time2
17:55:36.753,98992,-0.87,0.55,0.06,10.29,9851
17:55:36.769,99002,-0.88,0.54,0.06,10.34,9852
17:55:36.772,99012,-0.88,0.54,0.06,10.38,9853
17:55:36.780,99022,-0.87,0.54,0.05,10.27,9854
17:55:36.798,99032,-0.88,0.54,0.05,10.36,9855
17:55:36.823,99042,-0.88,0.54,0.05,10.32,9856
17:55:36.824,99052,-0.88,0.55,0.04,10.35,9857
17:55:36.825,99062,-0.88,0.54,0.05,10.37,9858
17:55:36.852,99072,-0.88,0.54,0.05,10.29,9859
17:55:36.853,99082,-0.88,0.55,0.05,10.35,9860
17:55:36.854,99092,-0.88,0.54,0.04,10.35,9861
17:55:36.860,99102,-0.88,0.54,0.04,10.30,9862
17:55:36.871,99112,-0.88,0.54,0.04,10.31,9863
17:55:36.881,99122,-0.88,0.54,0.04,10.33,9864
17:55:36.891,99132,-0.88,0.54,0.04,10.29,9865
17:55:36.908,99142,-0.88,0.54,0.03,10.32,9866
17:55:36.911,99152,-0.88,0.54,0.03,10.32,9867
17:55:36.920,99162,-0.88,0.54,0.04,10.33,9868
17:55:36.937,99172,-0.89,0.54,0.04,10.41,9869
17:55:36.940,99182,-0.88,0.54,0.05,10.28,9870
17:55:36.954,99192,-0.88,0.54,0.04,10.39,9871
17:55:36.964,99202,-0.87,0.54,0.04,10.26,9872
17:55:36.972,99212,-0.87,0.54,0.03,10.25,9873
17:55:36.982,99222,-0.87,0.54,0.05,10.25,9874
17:55:36.992,99232,-0.87,0.53,0.04,10.21,9875
17:55:37.000,99242,-0.88,0.54,0.04,10.30,9876
17:55:37.012,99252,-0.87,0.54,0.04,10.21,9877
17:55:37.123,99262,-0.87,0.53,0.03,10.15,9878
17:55:37.123,99272,-0.86,0.53,0.03,10.14,9879
17:55:37.128,99282,-0.86,0.53,0.04,10.12,9880
17:55:37.128,99292,-0.88,0.53,0.03,10.23,9881
17:55:37.138,99302,-0.88,0.54,0.03,10.32,9882
17:55:37.138,99312,-0.90,0.53,0.04,10.45,9883
17:55:37.164,99322,-0.90,0.54,0.05,10.52,9884
17:55:37.165,99332,-0.92,0.55,0.05,10.71,9885
17:55:37.168,99342,-0.90,0.54,0.02,10.54,9886
17:55:37.171,99352,-0.89,0.54,0.00,10.44,9887
17:55:37.171,99362,-0.89,0.53,-0.01,10.38,9888
17:55:37.172,99372,-0.89,0.53,-0.04,10.41,9889
17:55:37.172,99382,-0.90,0.53,-0.06,10.47,9890
17:55:37.172,99392,-0.91,0.53,-0.10,10.52,9891
17:55:37.172,99402,-0.89,0.53,-0.12,10.42,9892
17:55:37.206,99412,-0.88,0.55,-0.16,10.51,9893
17:55:37.209,99422,-0.89,0.55,-0.19,10.63,9894
17:55:37.209,99432,-0.91,0.55,-0.22,10.88,9895
17:55:37.210,99442,-0.92,0.55,-0.27,11.01,9896
17:55:37.210,99452,-0.90,0.54,-0.30,10.93,9897
17:55:37.245,99462,-0.90,0.55,-0.32,11.02,9898
17:55:37.246,99472,-0.89,0.55,-0.33,11.03,9899
17:55:37.246,99482,-0.91,0.56,-0.33,11.15,9900
17:55:37.284,99492,-0.93,0.56,-0.31,11.26,9901
17:55:37.285,99502,-0.95,0.53,-0.31,11.31,9902
17:55:37.287,99512,-0.98,0.52,-0.24,11.40,9903
17:55:37.288,99522,-1.02,0.54,-0.19,11.66,9904
17:55:37.290,99532,-1.04,0.56,-0.11,11.83,9905
17:55:37.315,99542,-1.06,0.59,-0.04,12.13,9906
17:55:37.316,99552,-1.07,0.62,0.01,12.31,9907
17:55:37.321,99562,-1.08,0.64,0.07,12.59,9908
17:55:37.331,99572,-1.09,0.63,0.16,12.67,9909
17:55:37.341,99582,-1.07,0.64,0.09,12.50,9910
17:55:37.357,99592,-1.07,0.62,0.08,12.38,9911
17:55:37.362,99602,-1.06,0.61,0.15,12.26,9912
17:55:37.375,99612,-1.04,0.60,0.20,12.19,9913
17:55:37.381,99622,-1.02,0.59,0.23,12.01,9914
17:55:37.391,99632,-0.99,0.58,0.29,11.84,9915
17:55:37.400,99642,-0.98,0.56,0.28,11.59,9916
17:55:37.411,99652,-0.94,0.47,0.31,10.93,9917
17:55:37.428,99662,-0.93,0.42,0.27,10.62,9918
17:55:37.431,99672,-0.93,0.40,0.26,10.40,9919
17:55:37.446,99682,-0.91,0.40,0.26,10.30,9920
17:55:37.450,99692,-0.89,0.44,0.27,10.28,9921
17:55:37.461,99702,-0.85,0.49,0.24,10.14,9922
17:55:37.477,99712,-0.81,0.53,0.21,9.91,9923
17:55:37.481,99722,-0.77,0.55,0.20,9.65,9924
17:55:37.492,99732,-0.73,0.58,0.19,9.50,9925
17:55:37.501,99742,-0.72,0.57,0.18,9.37,9926
17:55:37.517,99752,-0.74,0.57,0.19,9.53,9927
17:55:37.520,99762,-0.76,0.57,0.17,9.69,9928
17:55:37.536,99772,-0.78,0.56,0.18,9.80,9929
17:55:37.543,99782,-0.80,0.54,0.17,9.80,9930
17:55:37.553,99792,-0.83,0.52,0.15,9.94,9931
17:55:37.562,99802,-0.87,0.52,0.14,10.21,9932
17:55:37.572,99812,-0.90,0.53,0.14,10.55,9933
17:55:37.583,99822,-0.85,0.55,0.12,10.13,9934
17:55:37.591,99832,-0.88,0.53,0.11,10.31,9935
17:55:37.600,99842,-0.87,0.54,0.11,10.27,9936
17:55:37.612,99852,-0.85,0.56,0.09,10.23,9937
17:55:37.620,99862,-0.84,0.60,0.06,10.35,9938
17:55:37.634,99872,-0.82,0.65,0.03,10.46,9939
17:55:37.643,99882,-0.79,0.65,-0.01,10.22,9940
17:55:37.650,99892,-0.75,0.61,-0.02,9.64,9941
17:55:37.661,99902,-0.78,0.58,-0.06,9.74,9942
17:55:37.672,99912,-0.88,0.55,-0.10,10.42,9943
17:55:37.682,99922,-0.95,0.53,-0.12,10.94,9944
17:55:37.691,99932,-1.00,0.48,-0.16,11.19,9945
17:55:37.700,99942,-0.99,0.45,-0.19,11.04,9946
17:55:37.713,99952,-0.96,0.45,-0.20,10.81,9947
17:55:37.723,99962,-0.92,0.46,-0.17,10.41,9948
17:55:37.733,99972,-0.85,0.50,-0.18,10.02,9949
17:55:37.743,99982,-0.83,0.51,-0.18,9.92,9950
17:55:37.753,99992,-0.76,0.54,-0.20,9.49,9951
17:55:37.761,100002,-0.70,0.56,-0.21,9.20,9952
17:55:37.770,100012,-0.66,0.58,-0.22,9.04,9953
17:55:37.787,100022,-0.70,0.56,-0.24,9.24,9954
17:55:37.792,100032,-0.73,0.53,-0.25,9.39,9955
17:55:37.802,100042,-0.74,0.54,-0.29,9.62,9956
17:55:37.810,100052,-0.76,0.49,-0.31,9.51,9957
17:55:37.820,100062,-0.79,0.43,-0.31,9.47,9958
17:55:37.835,100072,-0.82,0.37,-0.33,9.56,9959
17:55:37.842,100082,-0.87,0.34,-0.29,9.75,9960
17:55:37.896,100092,-0.89,0.28,-0.25,9.63,9961
17:55:37.896,100102,-0.86,0.28,-0.30,9.53,9962
17:55:37.898,100112,-0.84,0.21,-0.17,8.83,9963
17:55:37.900,100122,-0.83,0.20,-0.12,8.61,9964
17:55:37.901,100132,-0.83,0.15,-0.06,8.48,9965
17:55:37.937,100142,-0.79,0.12,0.04,7.98,9966
17:55:37.939,100152,-0.75,0.12,0.12,7.65,9967
17:55:37.939,100162,-0.71,0.13,0.20,7.55,9968
17:55:37.942,100172,-0.84,0.27,0.19,9.03,9969
17:55:37.978,100182,-2.08,1.67,-0.54,27.22,9970
17:55:37.980,100192,-1.92,2.00,-0.47,28.07,9971
17:55:37.982,100202,-1.47,0.87,-0.24,17.23,9972
17:55:37.984,100212,-0.47,0.92,-0.62,12.08,9973
17:55:37.984,100222,-0.35,0.73,-0.49,9.49,9974
17:55:38.015,100232,-0.64,1.09,-0.34,13.11,9975
17:55:38.016,100242,-1.31,0.56,0.41,14.79,9976
17:55:38.017,100252,-1.33,0.25,0.47,14.31,9977
17:55:38.020,100262,-1.46,0.09,0.35,15.09,9978
17:55:38.057,100272,-1.09,0.43,0.04,11.70,9979
17:55:38.061,100282,-0.85,0.32,-0.05,9.10,9980
17:55:38.062,100292,-0.93,0.02,0.06,9.32,9981
17:55:38.063,100302,-1.02,-0.01,0.07,10.18,9982
17:55:38.094,100312,-1.22,0.05,0.12,12.26,9983
17:55:38.094,100322,-1.06,0.28,0.18,11.09,9984
17:55:38.095,100332,-0.85,0.55,0.06,10.17,9985
17:55:38.112,100342,-0.83,0.65,0.02,10.58,9986
17:55:38.126,100352,-0.95,0.53,0.01,10.87,9987
17:55:38.127,100362,-1.02,0.36,-0.04,10.83,9988
17:55:38.143,100372,-1.03,0.31,-0.08,10.81,9989
17:55:38.144,100382,-1.05,0.29,-0.10,10.98,9990
17:55:38.190,100392,-1.05,0.31,-0.11,10.99,9991
17:55:38.190,100402,-1.02,0.35,-0.14,10.92,9992
17:55:38.190,100412,-1.01,0.37,-0.13,10.79,9993
17:55:38.191,100422,-1.00,0.38,-0.12,10.79,9994
17:55:38.191,100432,-0.99,0.37,-0.11,10.66,9995
17:55:38.205,100442,-0.99,0.34,-0.10,10.53,9996
17:55:38.212,100452,-1.01,0.34,-0.09,10.72,9997
17:55:38.228,100462,-0.99,0.39,-0.10,10.64,9998
17:55:38.231,100472,-0.95,0.42,-0.13,10.50,9999
17:55:38.241,100482,-0.95,0.44,-0.16,10.58,10000
17:55:38.254,100492,-0.95,0.45,-0.18,10.66,10001
17:55:38.263,100502,-0.96,0.42,-0.20,10.62,10002
17:55:38.272,100512,-0.97,0.42,-0.19,10.72,10003
17:55:38.281,100522,-0.97,0.41,-0.19,10.65,10004
17:55:38.297,100532,-0.97,0.39,-0.15,10.55,10005
17:55:38.301,100542,-0.96,0.38,-0.11,10.41,10006
17:55:38.316,100552,-0.94,0.41,-0.09,10.27,10007
17:55:38.323,100562,-0.93,0.43,-0.05,10.25,10008
17:55:38.332,100572,-0.94,0.48,-0.00,10.53,10009
17:55:38.352,100582,-0.88,0.41,0.02,9.70,10010
17:55:38.353,100592,-0.95,0.46,0.11,10.58,10011
17:55:38.367,100602,-0.93,0.40,0.10,10.20,10012
17:55:38.371,100612,-0.92,0.40,0.15,10.13,10013
17:55:38.390,100622,-0.92,0.41,0.18,10.28,10014
17:55:38.390,100632,-0.91,0.40,0.17,10.09,10015
17:55:38.423,100642,-0.91,0.45,0.17,10.28,10016
17:55:38.424,100652,-0.90,0.49,0.15,10.39,10017
17:55:38.426,100662,-0.91,0.48,0.15,10.42,10018
17:55:38.430,100672,-0.95,0.49,0.16,10.78,10019
17:55:38.446,100682,-0.96,0.50,0.18,10.93,10020
17:55:38.451,100692,-0.98,0.48,0.17,11.08,10021
17:55:38.466,100702,-1.01,0.47,0.14,11.24,10022
17:55:38.471,100712,-1.03,0.49,0.11,11.46,10023
17:55:38.481,100722,-1.06,0.48,0.06,11.66,10024
17:55:38.492,100732,-1.12,0.38,-0.09,11.86,10025
17:55:38.536,100742,-1.10,0.46,-0.03,11.88,10026
17:55:38.537,100752,-1.07,0.53,-0.03,11.94,10027
17:55:38.539,100762,-1.06,0.55,-0.07,12.00,10028
17:55:38.539,100772,-1.06,0.54,-0.09,11.91,10029
17:55:38.540,100782,-1.05,0.54,-0.12,11.83,10030
17:55:38.577,100792,-1.03,0.53,-0.14,11.70,10031
17:55:38.578,100802,-1.05,0.49,-0.17,11.67,10032
17:55:38.581,100812,-1.09,0.44,-0.19,11.92,10033
17:55:38.582,100822,-1.14,0.43,-0.23,12.41,10034
17:55:38.619,100832,-1.17,0.47,-0.26,12.87,10035
17:55:38.619,100842,-1.14,0.56,-0.26,12.94,10036
17:55:38.620,100852,-1.12,0.60,-0.25,12.92,10037
17:55:38.622,100862,-1.14,0.62,-0.31,13.36,10038
17:55:38.660,100872,-1.15,0.66,-0.35,13.74,10039
17:55:38.660,100882,-1.17,0.72,-0.34,14.20,10040
17:55:38.663,100892,-1.20,0.82,-0.24,14.71,10041
17:55:38.663,100902,-1.23,0.98,-0.54,16.62,10042
17:55:38.703,100912,-1.20,1.01,-0.65,17.03,10043
17:55:38.704,100922,-1.19,0.91,-0.59,16.09,10044
17:55:38.707,100932,-1.20,0.61,-0.50,14.39,10045
17:55:38.728,100942,-1.30,0.40,-0.19,13.72,10046
17:55:38.729,100952,-1.32,0.44,0.33,14.28,10047
17:55:38.732,100962,-1.28,0.35,0.68,14.91,10048
17:55:38.733,100972,-1.34,0.33,0.76,15.77,10049
17:55:38.741,100982,-1.36,0.26,0.80,15.97,10050
17:55:38.758,100992,-1.33,0.11,1.04,16.92,10051
17:55:38.762,101002,-1.18,0.08,1.16,16.60,10052
17:55:38.772,101012,-0.90,0.26,0.95,13.34,10053
17:55:38.782,101022,-0.67,0.35,0.85,11.39,10054
17:55:38.791,101032,-0.61,0.65,0.76,11.70,10055
17:55:38.802,101042,-0.36,0.81,0.60,10.70,10056
17:55:38.811,101052,-0.40,0.62,0.48,8.81,10057
17:55:38.832,101062,-0.53,0.34,0.64,8.96,10058
17:55:38.832,101072,-0.55,0.18,0.79,9.78,10059
17:55:38.842,101082,-0.44,0.42,0.74,9.55,10060
17:55:38.857,101092,-0.47,0.23,0.75,9.21,10061
17:55:38.860,101102,-0.32,0.28,0.69,8.11,10062
17:55:38.870,101112,-0.23,0.31,0.69,7.87,10063
17:55:38.881,101122,-0.20,0.30,0.60,7.01,10064
17:55:38.891,101132,-0.23,0.30,0.64,7.45,10065
17:55:38.901,101142,-0.28,0.24,0.59,6.94,10066
17:55:38.919,101152,-0.26,0.26,0.58,6.85,10067
17:55:38.920,101162,-0.29,0.21,0.67,7.61,10068
17:55:38.937,101172,-0.28,0.22,0.68,7.71,10069
17:55:38.940,101182,-0.33,0.27,0.71,8.25,10070
17:55:38.953,101192,-0.30,0.29,0.60,7.29,10071
17:55:38.962,101202,-0.37,0.31,0.58,7.56,10072
17:55:38.972,101212,-0.42,0.37,0.54,7.78,10073
17:55:38.982,101222,-0.44,0.40,0.50,7.78,10074
17:55:38.996,101232,-0.48,0.39,0.50,7.93,10075
17:55:39.001,101242,-0.52,0.44,0.51,8.52,10076
17:55:39.011,101252,-0.62,0.43,0.54,9.23,10077
17:55:39.022,101262,-0.69,0.46,0.56,10.02,10078
17:55:39.039,101272,-0.77,0.36,0.78,11.61,10079
17:55:39.041,101282,-0.78,0.43,0.53,10.36,10080
17:55:39.051,101292,-0.77,0.46,0.48,10.19,10081
17:55:39.065,101302,-0.75,0.51,0.43,10.07,10082
17:55:39.075,101312,-0.73,0.54,0.35,9.74,10083
17:55:39.081,101322,-0.73,0.58,0.32,9.85,10084
17:55:39.095,101332,-0.86,0.52,0.27,10.43,10085
17:55:39.100,101342,-0.99,0.42,0.25,11.06,10086
17:55:39.110,101352,-1.02,0.36,0.18,10.96,10087
17:55:39.124,101362,-0.91,0.28,-0.02,9.56,10088
17:55:39.134,101372,-0.66,0.26,-0.22,7.42,10089
17:55:39.142,101382,-0.55,0.37,-0.54,8.56,10090
17:55:39.156,101392,-0.32,0.51,-0.85,10.43,10091
17:55:39.161,101402,-0.48,0.45,-0.70,9.56,10092
17:55:39.170,101412,-0.70,0.32,-0.23,8.03,10093
17:55:39.183,101422,-0.82,0.21,0.13,8.59,10094
17:55:39.197,101432,-0.78,0.20,0.36,8.81,10095
17:55:39.201,101442,-0.70,0.29,0.48,8.95,10096
17:55:39.213,101452,-1.28,1.04,0.36,16.88,10097
17:55:39.221,101462,-1.92,2.00,-0.20,27.78,10098
17:55:39.233,101472,-1.38,0.94,-0.16,16.80,10099
17:55:39.243,101482,-0.81,0.81,-0.04,11.44,10100
17:55:39.257,101492,-1.16,0.76,-0.09,13.89,10101
17:55:39.260,101502,-1.34,0.16,0.17,13.60,10102
17:55:39.300,101512,-1.31,0.07,0.51,14.04,10103
17:55:39.302,101522,-0.96,0.37,0.78,12.92,10104
17:55:39.303,101532,-0.71,0.96,0.57,13.25,10105
17:55:39.303,101542,-0.63,1.20,0.39,14.05,10106
17:55:39.341,101552,-0.69,0.78,-0.02,10.42,10107
17:55:39.343,101562,-0.91,0.15,-0.00,9.20,10108
17:55:39.343,101572,-1.16,-0.29,0.06,11.97,10109
17:55:39.344,101582,-1.28,-0.37,0.19,13.43,10110
17:55:39.373,101592,-1.22,-0.02,0.06,12.25,10111
17:55:39.374,101602,-1.03,0.45,0.07,11.26,10112
17:55:39.375,101612,-0.83,0.65,0.02,10.55,10113
17:55:39.418,101622,-0.81,0.65,-0.03,10.36,10114
17:55:39.418,101632,-0.97,0.46,-0.02,10.70,10115
17:55:39.418,101642,-1.06,0.32,-0.02,11.12,10116
17:55:39.418,101652,-1.07,0.27,-0.06,11.01,10117
17:55:39.454,101662,-1.01,0.32,-0.11,10.63,10118
17:55:39.538,101672,-0.98,0.41,-0.15,10.70,10119
17:55:39.551,101682,-0.97,0.44,-0.18,10.82,10120
17:55:39.563,101692,-0.93,0.46,-0.21,10.57,10121
17:55:39.566,101702,-0.95,0.44,-0.21,10.68,10122
17:55:39.568,101712,-1.00,0.36,-0.20,10.76,10123
17:55:39.568,101722,-1.01,0.32,-0.19,10.75,10124
17:55:39.570,101732,-0.99,0.35,-0.14,10.60,10125
17:55:39.572,101742,-0.96,0.40,-0.10,10.48,10126
17:55:39.572,101752,-0.92,0.52,-0.01,10.60,10127
17:55:39.572,101762,-0.83,0.64,0.03,10.52,10128
17:55:39.572,101772,-0.85,0.61,0.05,10.44,10129
17:55:39.572,101782,-0.90,0.48,0.06,10.23,10130
17:55:39.572,101792,-0.94,0.42,0.06,10.34,10131
17:55:39.572,101802,-0.96,0.39,0.07,10.40,10132
17:55:39.572,101812,-0.95,0.40,0.11,10.34,10133
17:55:39.580,101822,-0.96,0.42,0.13,10.56,10134
17:55:39.594,101832,-0.91,0.45,0.15,10.27,10135
17:55:39.605,101842,-0.93,0.47,0.21,10.65,10136
17:55:39.610,101852,-0.94,0.44,0.21,10.62,10137
17:55:39.627,101862,-0.97,0.43,0.20,10.80,10138
17:55:39.631,101872,-0.96,0.46,0.17,10.77,10139
17:55:39.640,101882,-0.94,0.50,0.13,10.74,10140
17:55:39.651,101892,-0.98,0.50,0.11,11.05,10141
17:55:39.663,101902,-1.03,0.50,0.10,11.46,10142
17:55:39.706,101912,-1.06,0.46,0.08,11.58,10143
17:55:39.706,101922,-1.04,0.47,0.04,11.44,10144
17:55:39.709,101932,-1.03,0.49,0.00,11.41,10145
17:55:39.709,101942,-1.03,0.54,-0.03,11.60,10146
17:55:39.732,101952,-1.05,0.53,-0.08,11.77,10147
17:55:39.747,101962,-1.07,0.52,-0.13,11.94,10148
17:55:39.747,101972,-1.06,0.48,-0.17,11.78,10149
17:55:39.747,101982,-1.07,0.44,-0.20,11.72,10150
17:55:39.751,101992,-1.07,0.44,-0.22,11.75,10151
17:55:39.766,102002,-1.04,0.47,-0.24,11.62,10152
17:55:39.771,102012,-0.99,0.50,-0.24,11.36,10153
17:55:39.780,102022,-0.98,0.49,-0.27,11.26,10154
17:55:39.791,102032,-0.96,0.47,-0.29,11.04,10155
17:55:39.801,102042,-1.00,0.45,-0.39,11.63,10156
17:55:39.818,102052,-1.07,0.46,-0.39,12.25,10157
17:55:39.822,102062,-1.15,0.50,-0.40,13.16,10158
17:55:39.831,102072,-1.16,0.60,-0.35,13.56,10159
17:55:39.844,102082,-1.17,0.67,-0.39,14.02,10160
17:55:39.851,102092,-1.19,0.68,-0.38,14.20,10161
17:55:39.863,102102,-1.22,0.69,-0.32,14.36,10162
17:55:39.872,102112,-1.30,0.77,-0.33,15.45,10163
17:55:39.889,102122,-1.29,0.91,-0.68,17.20,10164
17:55:39.898,102132,-1.25,0.92,-0.61,16.68,10165
17:55:39.903,102142,-1.19,0.79,-0.29,14.58,10166
17:55:39.912,102152,-1.19,0.61,-0.09,13.40,10167
17:55:39.930,102162,-1.28,0.37,0.27,13.63,10168
17:55:39.930,102172,-1.28,0.29,0.62,14.48,10169
17:55:39.948,102182,-1.22,0.22,1.00,15.92,10170
17:55:39.950,102192,-1.33,0.25,0.93,16.46,10171
17:55:39.960,102202,-1.45,0.20,1.14,18.52,10172
17:55:39.972,102212,-1.47,0.16,1.32,19.77,10173
17:55:39.985,102222,-1.10,0.27,1.04,15.38,10174
17:55:40.023,102232,-0.66,0.46,0.86,11.78,10175
17:55:40.024,102242,-0.42,0.54,0.77,10.29,10176
17:55:40.025,102252,-0.50,0.43,0.78,10.23,10177
17:55:40.027,102262,-0.44,0.32,0.61,8.16,10178
17:55:40.064,102272,-0.44,0.31,0.70,8.82,10179
17:55:40.065,102282,-0.39,0.25,0.74,8.69,10180
17:55:40.067,102292,-0.38,0.34,0.76,9.18,10181
17:55:40.068,102302,-0.31,0.37,0.71,8.54,10182
17:55:40.072,102312,-0.37,0.35,0.68,8.49,10183
17:55:40.106,102322,-0.29,0.31,0.63,7.60,10184
17:55:40.106,102332,-0.25,0.30,0.59,7.08,10185
17:55:40.108,102342,-0.29,0.26,0.59,7.07,10186
17:55:40.111,102352,-0.28,0.17,0.59,6.78,10187
17:55:40.148,102362,-0.27,0.17,0.60,6.83,10188
17:55:40.152,102372,-0.26,0.21,0.63,7.13,10189
17:55:40.152,102382,-0.24,0.28,0.81,8.93,10190
17:55:40.153,102392,-0.24,0.34,0.60,7.33,10191
17:55:40.191,102402,-0.27,0.37,0.57,7.36,10192
17:55:40.193,102412,-0.29,0.40,0.54,7.29,10193
17:55:40.193,102422,-0.32,0.39,0.52,7.23,10194
17:55:40.195,102432,-0.37,0.35,0.54,7.42,10195
17:55:40.216,102442,-0.46,0.34,0.54,7.83,10196
17:55:40.217,102452,-0.53,0.32,0.62,8.77,10197
17:55:40.221,102462,-0.58,0.32,0.61,9.05,10198
17:55:40.231,102472,-0.49,0.39,0.50,8.05,10199
17:55:40.248,102482,-0.67,0.29,0.64,9.72,10200
17:55:40.251,102492,-0.67,0.33,0.62,9.73,10201
17:55:40.263,102502,-0.71,0.36,0.61,10.08,10202
17:55:40.271,102512,-0.72,0.39,0.56,9.94,10203
17:55:40.284,102522,-0.72,0.43,0.49,9.69,10204
17:55:40.295,102532,-0.73,0.44,0.41,9.50,10205
17:55:40.302,102542,-0.76,0.47,0.28,9.37,10206
17:55:40.312,102552,-0.87,0.52,0.33,10.68,10207
17:55:40.323,102562,-0.91,0.49,0.34,10.83,10208
17:55:40.331,102572,-1.03,0.42,0.29,11.51,10209
17:55:40.348,102582,-1.06,0.27,0.22,11.11,10210
17:55:40.351,102592,-0.94,0.23,0.06,9.72,10211
17:55:40.367,102602,-0.76,0.36,-0.11,8.49,10212
17:55:40.370,102612,-0.56,0.54,-0.29,8.35,10213
17:55:40.381,102622,-0.41,0.67,-0.55,9.59,10214
17:55:40.390,102632,-0.44,0.58,-0.61,9.54,10215
17:55:40.408,102642,-0.59,0.39,-0.46,8.50,10216
17:55:40.412,102652,-0.74,0.20,-0.21,7.95,10217
17:55:40.421,102662,-0.81,0.10,0.04,8.16,10218
17:55:40.432,102672,-0.79,0.04,0.24,8.28,10219
17:55:40.442,102682,-0.85,0.10,0.35,9.23,10220
17:55:40.450,102692,-1.92,1.18,-0.08,22.61,10221
17:55:40.464,102702,-2.13,2.00,-0.26,29.26,10222
17:55:40.471,102712,-1.55,1.32,-0.43,20.81,10223
17:55:40.491,102722,-0.24,1.01,-0.37,11.03,10224
17:55:40.491,102732,-0.79,0.83,-0.38,12.09,10225
17:55:40.504,102742,-1.27,0.36,0.14,13.27,10226
17:55:40.512,102752,-1.25,0.07,0.58,13.81,10227
17:55:40.523,102762,-1.17,0.05,0.84,14.35,10228
17:55:40.539,102772,-0.83,0.63,0.52,11.63,10229
17:55:40.540,102782,-0.72,1.02,0.33,12.88,10230
17:55:40.556,102792,-0.75,0.85,-0.03,11.36,10231
17:55:40.561,102802,-0.90,0.30,-0.04,9.47,10232
17:55:40.571,102812,-1.01,-0.16,-0.04,10.18,10233
17:55:40.581,102822,-1.13,-0.12,0.03,11.37,10234
17:55:40.594,102832,-1.13,0.16,0.03,11.37,10235
17:55:40.602,102842,-0.98,0.53,-0.02,11.14,10236
17:55:40.611,102852,-0.86,0.65,-0.09,10.81,10237
17:55:40.621,102862,-0.87,0.49,-0.09,10.05,10238
17:55:40.639,102872,-1.00,0.36,-0.02,10.67,10239
17:55:40.664,102882,-1.05,0.32,-0.00,11.01,10240
17:55:40.666,102892,-1.02,0.31,-0.03,10.66,10241
17:55:40.666,102902,-1.01,0.32,-0.04,10.57,10242
17:55:40.676,102912,-0.99,0.38,-0.06,10.61,10243
17:55:40.681,102922,-0.96,0.45,-0.09,10.66,10244
17:55:40.690,102932,-0.96,0.44,-0.12,10.63,10245
17:55:40.701,102942,-1.00,0.39,-0.10,10.75,10246
17:55:40.711,102952,-1.01,0.37,-0.06,10.80,10247
17:55:40.726,102962,-0.96,0.35,-0.06,10.25,10248
17:55:40.730,102972,-0.96,0.34,-0.05,10.22,10249
17:55:40.742,102982,-0.93,0.40,-0.04,10.09,10250
17:55:40.796,102992,-0.94,0.43,-0.03,10.30,10251
17:55:40.797,103002,-0.93,0.48,0.01,10.51,10252
17:55:40.799,103012,-0.94,0.47,0.02,10.50,10253
17:55:40.799,103022,-0.95,0.44,0.04,10.42,10254
17:55:40.800,103032,-0.94,0.40,0.06,10.28,10255
17:55:40.803,103042,-0.96,0.38,0.10,10.41,10256
17:55:40.838,103052,-0.96,0.41,0.12,10.45,10257
17:55:40.841,103062,-0.95,0.43,0.15,10.58,10258
17:55:40.881,103072,-0.94,0.46,0.18,10.59,10259
17:55:40.881,103082,-0.94,0.49,0.17,10.73,10260
17:55:40.882,103092,-0.99,0.45,0.14,10.96,10261
17:55:40.921,103102,-0.99,0.44,0.13,10.95,10262
17:55:40.924,103112,-0.99,0.43,0.09,10.78,10263
17:55:40.970,103122,-1.01,0.44,0.06,10.97,10264
17:55:40.971,103132,-1.03,0.48,0.05,11.34,10265
17:55:40.987,103142,-1.04,0.52,0.03,11.64,10266
17:55:40.987,103152,-1.05,0.51,0.02,11.73,10267
17:55:40.987,103162,-1.06,0.50,0.02,11.70,10268
17:55:40.987,103172,-1.05,0.49,-0.01,11.55,10269
17:55:40.987,103182,-1.06,0.46,-0.06,11.55,10270
17:55:40.989,103192,-1.07,0.43,-0.07,11.54,10271
17:55:40.990,103202,-1.08,0.43,-0.12,11.66,10272
17:55:40.993,103212,-1.10,0.42,-0.15,11.90,10273
17:55:40.995,103222,-1.07,0.47,-0.19,11.81,10274
17:55:40.995,103232,-1.02,0.47,-0.23,11.47,10275
17:55:41.000,103242,-0.98,0.49,-0.26,11.26,10276
17:55:41.016,103252,-0.96,0.51,-0.27,11.18,10277
17:55:41.022,103262,-0.95,0.51,-0.26,11.08,10278
17:55:41.036,103272,-0.99,0.52,-0.23,11.42,10279
17:55:41.053,103282,-1.07,0.55,-0.19,12.14,10280
17:55:41.053,103292,-1.09,0.66,-0.15,12.85,10281
17:55:41.063,103302,-1.08,0.70,-0.22,13.10,10282
17:55:41.073,103312,-1.14,0.62,-0.28,13.29,10283
17:55:41.083,103322,-1.22,0.63,-0.26,13.96,10284
17:55:41.093,103332,-1.26,0.76,-0.39,15.23,10285
17:55:41.100,103342,-1.32,0.85,-0.84,17.83,10286
17:55:41.111,103352,-1.37,0.82,-1.00,18.84,10287
17:55:41.121,103362,-1.31,0.72,-0.79,16.91,10288
17:55:41.134,103372,-1.33,0.53,-0.52,15.25,10289
17:55:41.141,103382,-1.46,0.30,-0.11,14.93,10290
17:55:41.151,103392,-1.49,0.29,0.49,15.99,10291
17:55:41.165,103402,-1.68,0.16,0.78,18.55,10292
17:55:41.174,103412,-1.60,0.08,1.02,19.02,10293
17:55:41.183,103422,-1.64,-0.02,0.99,19.17,10294
17:55:41.192,103432,-1.54,-0.14,1.36,20.60,10295
17:55:41.200,103442,-1.13,0.15,1.30,17.28,10296
17:55:41.210,103452,-0.85,0.44,0.93,13.38,10297
17:55:41.220,103462,-0.71,0.59,0.81,12.31,10298
17:55:41.234,103472,-0.49,0.72,0.90,12.49,10299
17:55:41.242,103482,-0.22,0.85,0.90,12.53,10300
17:55:41.252,103492,-0.37,0.81,0.51,10.29,10301
17:55:41.270,103502,-0.52,0.22,0.71,9.12,10302
17:55:41.271,103512,-0.45,0.21,0.70,8.57,10303
17:55:41.281,103522,-0.63,0.18,0.89,11.08,10304
17:55:41.291,103532,-0.55,0.14,0.79,9.72,10305
17:55:41.306,103542,-0.43,0.22,0.79,9.21,10306
17:55:41.311,103552,-0.24,0.32,0.75,8.50,10307
17:55:41.322,103562,-0.17,0.34,0.75,8.43,10308
17:55:41.340,103572,-0.13,0.29,0.70,7.69,10309
17:55:41.341,103582,-0.17,0.30,0.57,6.67,10310
17:55:41.351,103592,-0.21,0.18,0.65,7.01,10311
17:55:41.360,103602,-0.22,0.19,0.71,7.61,10312
17:55:41.376,103612,-0.19,0.19,0.41,4.86,10313
17:55:41.381,103622,-0.22,0.18,0.64,7.00,10314
17:55:41.391,103632,-0.22,0.25,0.70,7.75,10315
17:55:41.400,103642,-0.26,0.30,0.68,7.88,10316
17:55:41.412,103652,-0.29,0.36,0.69,8.31,10317
17:55:41.430,103662,-0.33,0.44,0.66,8.57,10318
17:55:41.432,103672,-0.38,0.51,0.63,8.92,10319
17:55:41.482,103682,-0.41,0.43,0.69,9.15,10320
17:55:41.484,103692,-0.47,0.46,0.54,8.50,10321
17:55:41.485,103702,-0.64,0.38,0.59,9.46,10322
17:55:41.488,103712,-0.75,0.35,0.61,10.27,10323
17:55:41.488,103722,-0.79,0.28,0.58,10.19,10324
17:55:41.524,103732,-0.82,0.46,0.33,9.92,10325
17:55:41.525,103742,-0.70,0.39,0.45,9.19,10326
17:55:41.525,103752,-0.69,0.49,0.41,9.38,10327
17:55:41.528,103762,-0.66,0.67,0.34,9.97,10328
17:55:41.564,103772,-0.77,0.67,0.36,10.84,10329
17:55:41.566,103782,-0.90,0.50,0.33,10.83,10330
17:55:41.569,103792,-1.00,0.28,0.24,10.66,10331
17:55:41.569,103802,-0.95,-0.01,-0.08,9.55,10332
17:55:41.606,103812,-0.79,0.01,-0.20,8.13,10333
17:55:41.607,103822,-0.61,0.20,-0.30,7.11,10334
17:55:41.609,103832,-0.47,0.39,-0.48,7.78,10335
17:55:41.609,103842,-0.43,0.45,-0.50,7.97,10336
17:55:41.611,103852,-0.55,0.39,-0.26,7.26,10337
17:55:41.649,103862,-0.66,0.22,0.04,6.98,10338
17:55:41.667,103872,-0.73,0.07,0.26,7.77,10339
17:55:41.667,103882,-0.71,0.02,0.38,8.06,10340
17:55:41.667,103892,-0.76,0.18,0.44,8.97,10341
17:55:41.674,103902,-2.13,1.54,0.04,26.23,10342
17:55:41.674,103912,-2.13,2.00,-0.42,29.45,10343
17:55:41.681,103922,-0.89,1.20,-0.12,14.93,10344
17:55:41.692,103932,-0.37,0.79,-0.47,9.86,10345
17:55:41.701,103942,-0.93,0.35,-0.29,10.40,10346
17:55:41.711,103952,-1.71,-0.14,0.06,17.18,10347
17:55:41.727,103962,-1.54,-0.35,0.98,18.53,10348
17:55:41.730,103972,-1.35,-0.07,1.12,17.58,10349
17:55:41.740,103982,-0.80,1.04,0.69,14.84,10350
17:55:41.752,103992,-0.51,1.56,0.34,16.74,10351
17:55:41.760,104002,-0.27,1.35,-0.20,13.93,10352
17:55:41.777,104012,-0.80,0.27,-0.09,8.48,10353
17:55:41.781,104022,-1.14,-0.25,-0.03,11.68,10354
17:55:41.794,104032,-1.24,-0.25,0.00,12.70,10355
17:55:41.804,104042,-1.22,0.02,-0.03,12.24,10356
17:55:41.814,104052,-1.05,0.37,-0.13,11.20,10357
17:55:41.821,104062,-0.92,0.55,-0.20,10.85,10358
17:55:41.831,104072,-0.86,0.47,-0.19,10.02,10359
17:55:41.840,104082,-0.95,0.35,-0.12,10.23,10360
17:55:41.857,104092,-1.04,0.35,-0.10,10.97,10361
17:55:41.860,104102,-1.02,0.33,-0.12,10.76,10362
17:55:41.874,104112,-0.97,0.35,-0.13,10.43,10363
17:55:41.880,104122,-0.96,0.41,-0.14,10.55,10364
17:55:41.891,104132,-0.96,0.45,-0.14,10.71,10365
17:55:41.907,104142,-0.96,0.48,-0.13,10.84,10366
17:55:41.911,104152,-0.94,0.48,-0.11,10.62,10367
17:55:41.947,104162,-0.94,0.48,-0.09,10.59,10368
17:55:41.948,104172,-0.94,0.42,-0.06,10.30,10369
17:55:41.949,104182,-0.94,0.35,-0.02,10.04,10370
17:55:41.951,104192,-0.93,0.36,-0.00,9.99,10371
17:55:41.962,104202,-0.94,0.39,0.01,10.15,10372
17:55:41.972,104212,-0.93,0.44,0.01,10.29,10373
17:55:41.984,104222,-0.94,0.45,0.03,10.41,10374
17:55:41.993,104232,-0.94,0.43,0.06,10.38,10375
17:55:42.001,104242,-0.93,0.42,0.10,10.31,10376
17:55:42.019,104252,-0.94,0.42,0.15,10.42,10377
17:55:42.021,104262,-0.95,0.43,0.20,10.61,10378
17:55:42.031,104272,-0.93,0.41,0.25,10.52,10379
17:55:42.040,104282,-0.96,0.42,0.25,10.79,10380
17:55:42.055,104292,-0.97,0.44,0.24,10.90,10381
17:55:42.061,104302,-0.99,0.47,0.21,11.12,10382
17:55:42.071,104312,-1.01,0.46,0.15,11.17,10383
17:55:42.082,104322,-1.02,0.47,0.11,11.30,10384
17:55:42.095,104332,-1.01,0.46,0.07,11.17,10385
17:55:42.100,104342,-1.03,0.45,0.04,11.21,10386
17:55:42.113,104352,-1.03,0.48,0.02,11.36,10387
17:55:42.125,104362,-1.03,0.52,0.02,11.50,10388
17:55:42.131,104372,-1.03,0.54,0.00,11.59,10389
17:55:42.147,104382,-1.03,0.51,-0.03,11.52,10390
17:55:42.150,104392,-1.04,0.48,-0.07,11.48,10391
17:55:42.190,104402,-1.06,0.44,-0.11,11.48,10392
17:55:42.191,104412,-1.07,0.42,-0.13,11.58,10393
17:55:42.191,104422,-1.09,0.39,-0.18,11.76,10394
17:55:42.192,104432,-1.07,0.43,-0.24,11.82,10395
17:55:42.223,104442,-1.02,0.46,-0.30,11.60,10396
17:55:42.226,104452,-0.98,0.46,-0.36,11.42,10397
17:55:42.226,104462,-0.97,0.44,-0.41,11.40,10398
17:55:42.256,104472,-0.99,0.43,-0.41,11.58,10399
17:55:42.257,104482,-1.05,0.49,-0.36,12.15,10400
17:55:42.257,104492,-1.09,0.61,-0.32,12.86,10401
17:55:42.299,104502,-1.09,0.75,-0.32,13.62,10402
17:55:42.299,104512,-1.13,0.77,-0.33,14.11,10403
17:55:42.341,104522,-1.21,0.76,-0.28,14.59,10404
17:55:42.341,104532,-1.26,0.89,-0.28,15.70,10405
17:55:42.343,104542,-1.31,1.04,-0.85,18.78,10406
17:55:42.344,104552,-1.35,0.95,-0.91,18.89,10407
17:55:42.384,104562,-1.35,0.76,-0.62,16.72,10408
17:55:42.384,104572,-1.37,0.54,-0.43,15.36,10409
17:55:42.387,104582,-1.52,0.31,-0.00,15.50,10410
17:55:42.399,104592,-1.55,0.30,0.52,16.66,10411
17:55:42.400,104602,-1.68,0.21,0.92,19.25,10412
17:55:42.402,104612,-1.65,0.04,1.08,19.73,10413
17:55:42.402,104622,-1.50,-0.10,1.17,19.05,10414
17:55:42.423,104632,-1.44,-0.20,1.58,21.43,10415
17:55:42.423,104642,-1.14,0.16,1.36,17.78,10416
17:55:42.426,104652,-0.83,0.29,1.11,14.10,10417
17:55:42.444,104662,-0.74,0.43,0.89,12.36,10418
17:55:42.450,104672,-0.33,0.86,0.73,11.72,10419
17:55:42.450,104682,-0.06,1.21,0.40,12.78,10420
17:55:42.453,104692,-0.39,0.59,0.76,10.33,10421
17:55:42.478,104702,-0.45,0.41,0.71,9.35,10422
17:55:42.479,104712,-0.34,0.14,0.76,8.43,10423
17:55:42.483,104722,-0.36,0.16,0.84,9.32,10424
17:55:42.490,104732,-0.44,0.18,0.71,8.57,10425
17:55:42.504,104742,-0.29,0.29,0.68,7.94,10426
17:55:42.516,104752,-0.18,0.36,0.64,7.58,10427
17:55:42.520,104762,-0.20,0.22,0.67,7.29,10428
17:55:42.530,104772,-0.24,0.25,0.62,7.12,10429
17:55:42.542,104782,-0.22,0.17,0.67,7.23,10430
17:55:42.550,104792,-0.47,0.10,0.17,5.09,10431
17:55:42.565,104802,-0.26,0.18,0.74,8.01,10432
17:55:42.570,104812,-0.18,0.27,0.69,7.66,10433
17:55:42.584,104822,-0.22,0.31,0.71,8.07,10434
17:55:42.594,104832,-0.24,0.37,0.68,8.08,10435
17:55:42.600,104842,-0.26,0.41,0.61,7.75,10436
17:55:42.611,104852,-0.30,0.44,0.57,7.77,10437
17:55:42.628,104862,-0.38,0.39,0.53,7.57,10438
17:55:42.630,104872,-0.42,0.39,0.53,7.81,10439
17:55:42.642,104882,-0.53,0.36,0.57,8.59,10440
17:55:42.658,104892,-0.65,0.31,0.60,9.37,10441
17:55:42.661,104902,-0.71,0.31,0.63,10.02,10442
17:55:42.670,104912,-0.74,0.26,0.63,10.10,10443
17:55:42.682,104922,-0.71,0.26,0.75,10.60,10444
17:55:42.691,104932,-0.66,0.34,0.53,9.11,10445
17:55:42.704,104942,-0.68,0.43,0.51,9.54,10446
17:55:42.713,104952,-0.74,0.53,0.44,10.12,10447
17:55:42.729,104962,-0.83,0.54,0.36,10.56,10448
17:55:42.732,104972,-0.90,0.51,0.33,10.85,10449
17:55:42.743,104982,-0.99,0.36,0.28,10.85,10450
17:55:42.753,104992,-0.99,0.26,0.16,10.35,10451
17:55:42.764,105002,-0.87,0.16,-0.00,8.82,10452
17:55:42.773,105012,-0.70,0.17,-0.15,7.38,10453
17:55:42.783,105022,-0.52,0.27,-0.41,7.15,10454
17:55:42.792,105032,-0.37,0.40,-0.64,8.42,10455
17:55:42.804,105042,-0.34,0.49,-0.62,8.60,10456
17:55:42.812,105052,-0.53,0.44,-0.29,7.44,10457
17:55:42.825,105062,-0.69,0.22,0.02,7.26,10458
17:55:42.834,105072,-0.73,0.11,0.27,7.86,10459
17:55:42.840,105082,-0.71,0.11,0.45,8.46,10460
17:55:42.850,105092,-1.15,0.76,0.41,14.40,10461
17:55:42.861,105102,-2.13,2.00,-0.06,29.16,10462
17:55:42.871,105112,-1.58,1.66,-0.57,23.64,10463
17:55:42.929,105122,-0.40,0.82,-0.13,9.26,10464
17:55:42.929,105132,-1.16,0.64,-0.45,14.03,10465
17:55:42.930,105142,-2.04,-0.32,0.16,20.68,10466
17:55:42.931,105152,-1.60,-0.42,0.88,18.78,10467
17:55:42.933,105162,-1.11,-0.28,1.09,15.78,10468
17:55:42.934,105172,-0.52,1.27,0.57,14.88,10469
17:55:42.970,105182,-0.39,1.72,0.43,18.18,10470
17:55:42.970,105192,-0.12,1.64,0.00,16.40,10471
17:55:42.971,105202,-0.99,0.27,-0.13,10.34,10472
17:55:42.973,105212,-1.08,-0.18,-0.14,11.01,10473
17:55:43.008,105222,-1.27,-0.40,-0.07,13.30,10474
17:55:43.008,105232,-1.16,-0.07,-0.08,11.62,10475
17:55:43.010,105242,-0.98,0.35,-0.11,10.51,10476
17:55:43.010,105252,-0.93,0.59,-0.15,11.15,10477
17:55:43.048,105262,-0.92,0.57,-0.14,10.88,10478
17:55:43.049,105272,-0.94,0.41,-0.11,10.37,10479
17:55:43.050,105282,-1.02,0.32,-0.06,10.65,10480
17:55:43.051,105292,-1.05,0.34,-0.08,11.01,10481
17:55:43.089,105302,-1.02,0.35,-0.13,10.89,10482
17:55:43.090,105312,-1.00,0.37,-0.17,10.79,10483
17:55:43.091,105322,-1.00,0.37,-0.19,10.84,10484
17:55:43.092,105332,-1.00,0.35,-0.22,10.79,10485
17:55:43.117,105342,-1.00,0.31,-0.23,10.69,10486
17:55:43.117,105352,-1.01,0.32,-0.23,10.80,10487
17:55:43.121,105362,-0.99,0.37,-0.21,10.78,10488
17:55:43.134,105372,-0.96,0.38,-0.20,10.51,10489
17:55:43.143,105382,-0.93,0.43,-0.15,10.40,10490
17:55:43.152,105392,-0.90,0.47,-0.09,10.20,10491
17:55:43.165,105402,-0.92,0.52,-0.03,10.55,10492
17:55:43.174,105412,-0.91,0.54,0.02,10.54,10493
17:55:43.182,105422,-0.88,0.53,0.04,10.31,10494
17:55:43.192,105432,-0.91,0.47,0.08,10.32,10495
17:55:43.224,105442,-1.00,0.45,0.10,11.00,10496
17:55:43.225,105452,-0.94,0.40,0.13,10.36,10497
17:55:43.226,105462,-0.86,0.37,0.19,9.54,10498
17:55:43.232,105472,-0.90,0.35,0.20,9.88,10499
17:55:43.246,105482,-0.90,0.49,0.28,10.62,10500
17:55:43.250,105492,-0.92,0.57,0.30,11.25,10501
17:55:43.260,105502,-0.92,0.54,0.27,11.02,10502
17:55:43.271,105512,-0.95,0.46,0.23,10.78,10503
17:55:43.285,105522,-0.97,0.40,0.17,10.58,10504
17:55:43.292,105532,-0.98,0.43,0.15,10.81,10505
17:55:43.303,105542,-0.98,0.50,0.12,11.08,10506
17:55:43.313,105552,-1.01,0.51,0.10,11.35,10507
17:55:43.323,105562,-1.04,0.49,0.10,11.56,10508
17:55:43.333,105572,-1.04,0.48,0.07,11.49,10509
17:55:43.343,105582,-1.03,0.48,0.01,11.38,10510
17:55:43.353,105592,-1.04,0.51,-0.00,11.59,10511
17:55:43.362,105602,-1.06,0.51,-0.04,11.75,10512
17:55:43.374,105612,-1.07,0.47,-0.07,11.69,10513
17:55:43.383,105622,-1.09,0.43,-0.13,11.80,10514
17:55:43.393,105632,-1.10,0.41,-0.18,11.91,10515
17:55:43.405,105642,-1.08,0.44,-0.21,11.79,10516
17:55:43.414,105652,-1.01,0.46,-0.27,11.43,10517
17:55:43.422,105662,-0.98,0.44,-0.28,11.09,10518
17:55:43.432,105672,-0.99,0.40,-0.29,11.08,10519
17:55:43.440,105682,-1.01,0.39,-0.32,11.25,10520
17:55:43.452,105692,-1.05,0.45,-0.28,11.76,10521
17:55:43.467,105702,-1.09,0.53,-0.25,12.43,10522
17:55:43.471,105712,-1.10,0.60,-0.23,12.74,10523
17:55:43.488,105722,-1.10,0.65,-0.25,13.00,10524
17:55:43.493,105732,-1.10,0.65,-0.25,13.05,10525
17:55:43.503,105742,-1.13,0.67,-0.22,13.31,10526
17:55:43.512,105752,-1.13,0.73,-0.16,13.55,10527
17:55:43.524,105762,-1.19,0.88,-0.55,15.80,10528
17:55:43.536,105772,-1.21,0.93,-0.80,17.24,10529
17:55:43.541,105782,-1.23,0.86,-0.64,16.34,10530
17:55:43.556,105792,-1.26,0.74,-0.47,15.35,10531
17:55:43.564,105802,-1.37,0.52,-0.19,14.75,10532
17:55:43.574,105812,-1.43,0.40,0.14,14.95,10533
17:55:43.584,105822,-1.28,0.60,0.60,15.31,10534
17:55:43.592,105832,-1.69,0.09,1.00,19.63,10535
17:55:43.602,105842,-1.40,0.01,0.95,16.91,10536
17:55:43.616,105852,-1.34,-0.11,0.99,16.70,10537
17:55:43.622,105862,-1.39,-0.14,1.54,20.81,10538
17:55:43.637,105872,-1.21,0.17,1.33,18.06,10539
17:55:43.640,105882,-0.77,0.24,1.16,14.09,10540
17:55:43.655,105892,-0.63,0.37,0.87,11.35,10541
17:55:43.666,105902,-0.66,0.42,0.90,11.90,10542
17:55:43.673,105912,-0.24,0.85,0.51,10.24,10543
17:55:43.682,105922,-0.13,0.61,0.86,10.63,10544
17:55:43.691,105932,-0.35,0.24,0.63,7.59,10545
17:55:43.701,105942,-0.35,0.21,0.72,8.24,10546
17:55:43.755,105952,-0.34,0.43,0.70,8.88,10547
17:55:43.792,105962,-0.36,0.34,0.65,8.17,10548
17:55:43.792,105972,-0.37,0.26,0.68,8.19,10549
17:55:43.832,105982,-0.30,0.20,0.69,7.81,10550
17:55:43.885,105992,-0.28,0.20,0.61,6.95,10551
17:55:43.886,106002,-0.31,0.24,0.62,7.36,10552
17:55:43.886,106012,-0.28,0.18,0.64,7.24,10553
17:55:43.926,106022,-0.29,0.19,0.70,7.85,10554
17:55:43.927,106032,-0.13,0.38,0.53,6.70,10555
17:55:43.929,106042,-0.23,0.34,0.69,8.00,10556
17:55:43.936,106052,-0.22,0.44,0.65,8.15,10557
17:55:43.936,106062,-0.24,0.49,0.59,8.06,10558
17:55:43.936,106072,-0.26,0.51,0.57,8.03,10559
17:55:43.936,106082,-0.29,0.48,0.55,7.91,10560
17:55:43.936,106092,-0.34,0.46,0.57,8.10,10561
17:55:43.936,106102,-0.42,0.40,0.57,8.14,10562
17:55:43.936,106112,-0.49,0.32,0.68,8.98,10563
17:55:43.936,106122,-0.55,0.39,0.61,9.06,10564
17:55:43.936,106132,-0.59,0.36,0.63,9.36,10565
17:55:43.936,106142,-0.65,0.38,0.65,9.93,10566
17:55:43.936,106152,-0.74,0.40,0.64,10.52,10567
17:55:43.943,106162,-0.79,0.37,0.59,10.56,10568
17:55:43.943,106172,-0.82,0.35,0.49,10.18,10569
17:55:43.944,106182,-0.85,0.38,0.38,10.04,10570
17:55:43.952,106192,-0.86,0.42,0.33,10.09,10571
17:55:43.962,106202,-0.88,0.52,0.21,10.39,10572
17:55:43.976,106212,-0.96,0.46,0.30,11.04,10573
17:55:43.983,106222,-0.88,0.34,0.06,9.46,10574
17:55:43.995,106232,-0.88,0.32,0.09,9.38,10575
17:55:44.007,106242,-0.86,0.27,0.06,9.07,10576
17:55:44.011,106252,-0.76,0.20,-0.16,8.01,10577
17:55:44.021,106262,-0.60,0.26,-0.45,7.90,10578
17:55:44.032,106272,-0.33,0.40,-0.74,8.98,10579
17:55:44.043,106282,-0.26,0.53,-0.54,8.03,10580
17:55:44.053,106292,-0.53,0.42,-0.13,6.88,10581
17:55:44.062,106302,-0.68,0.15,0.18,7.22,10582
17:55:44.078,106312,-0.73,0.03,0.41,8.37,10583
17:55:44.081,106322,-0.88,0.21,0.50,10.32,10584
17:55:44.090,106332,-2.13,1.74,-0.16,27.54,10585
17:55:44.100,106342,-2.11,1.97,-0.16,28.87,10586
17:55:44.111,106352,-0.99,0.77,-0.23,12.72,10587
17:55:44.123,106362,-0.56,0.96,-0.31,11.55,10588
17:55:44.135,106372,-1.15,0.40,-0.16,12.27,10589
17:55:44.141,106382,-1.79,-0.17,0.36,18.29,10590
17:55:44.151,106392,-1.49,-0.14,1.02,18.16,10591
17:55:44.161,106402,-0.95,0.65,0.75,13.75,10592
17:55:44.173,106412,-0.59,1.45,0.53,16.51,10593
17:55:44.184,106422,-0.25,1.78,0.15,18.08,10594
17:55:44.199,106432,-0.38,1.08,-0.39,12.10,10595
17:55:44.201,106442,-0.96,0.05,-0.23,9.88,10596
17:55:44.212,106452,-1.27,-0.53,-0.09,13.84,10597
17:55:44.222,106462,-1.56,-0.81,0.04,17.57,10598
17:55:44.235,106472,-1.44,-0.46,-0.14,15.20,10599
17:55:44.241,106482,-1.10,0.31,-0.11,11.46,10600
17:55:44.250,106492,-0.82,0.62,-0.13,10.40,10601
17:55:44.261,106502,-0.81,0.62,-0.12,10.26,10602
17:55:44.275,106512,-0.99,0.43,-0.03,10.80,10603
17:55:44.282,106522,-1.05,0.29,0.01,10.93,10604
17:55:44.298,106532,-1.05,0.25,-0.03,10.82,10605
17:55:44.300,106542,-1.00,0.34,-0.06,10.55,10606
17:55:44.310,106552,-0.99,0.44,-0.09,10.82,10607
17:55:44.322,106562,-0.98,0.44,-0.13,10.87,10608
17:55:44.332,106572,-0.96,0.42,-0.14,10.62,10609
17:55:44.342,106582,-0.96,0.36,-0.18,10.45,10610
17:55:44.354,106592,-0.98,0.35,-0.15,10.50,10611
17:55:44.364,106602,-0.97,0.38,-0.12,10.49,10612
17:55:44.375,106612,-0.91,0.45,-0.05,10.15,10613
17:55:44.383,106622,-0.86,0.52,-0.02,10.08,10614
17:55:44.395,106632,-0.87,0.56,0.04,10.34,10615
17:55:44.402,106642,-0.89,0.57,0.09,10.56,10616
17:55:44.419,106652,-0.92,0.51,0.10,10.60,10617
17:55:44.420,106662,-0.96,0.44,0.12,10.60,10618
17:55:44.432,106672,-0.98,0.39,0.13,10.63,10619
17:55:44.470,106682,-0.96,0.35,0.14,10.29,10620
17:55:44.471,106692,-0.93,0.41,0.14,10.21,10621
17:55:44.473,106702,-0.88,0.45,0.13,9.98,10622
17:55:44.475,106712,-0.86,0.43,0.12,9.72,10623
17:55:44.504,106722,-0.93,0.49,0.14,10.61,10624
17:55:44.505,106732,-0.91,0.46,0.08,10.22,10625
17:55:44.508,106742,-0.97,0.42,0.06,10.60,10626
17:55:44.510,106752,-0.98,0.40,0.05,10.58,10627
17:55:44.537,106762,-0.98,0.39,0.06,10.60,10628
17:55:44.538,106772,-0.97,0.47,0.08,10.81,10629
17:55:44.543,106782,-0.96,0.51,0.09,10.89,10630
17:55:44.575,106792,-0.92,0.51,0.09,10.58,10631
17:55:44.576,106802,-0.94,0.52,0.11,10.77,10632
17:55:44.576,106812,-0.96,0.53,0.10,10.99,10633
17:55:44.581,106822,-0.98,0.52,0.07,11.14,10634
17:55:44.617,106832,-1.01,0.50,0.05,11.29,10635
17:55:44.617,106842,-1.02,0.49,0.01,11.29,10636
17:55:44.618,106852,-1.03,0.45,-0.02,11.30,10637
17:55:44.620,106862,-1.05,0.44,-0.04,11.33,10638
17:55:44.664,106872,-1.07,0.41,-0.05,11.45,10639
17:55:44.665,106882,-1.10,0.40,-0.06,11.70,10640
17:55:44.701,106892,-1.07,0.42,-0.09,11.48,10641
17:55:44.735,106902,-1.03,0.41,-0.10,11.10,10642
17:55:44.738,106912,-0.99,0.43,-0.13,10.90,10643
17:55:44.739,106922,-0.97,0.45,-0.14,10.82,10644
17:55:44.739,106932,-0.96,0.45,-0.16,10.70,10645
17:55:44.740,106942,-0.96,0.47,-0.17,10.82,10646
17:55:44.745,106952,-1.02,0.49,-0.17,11.40,10647
17:55:44.745,106962,-1.07,0.54,-0.17,12.07,10648
17:55:44.745,106972,-1.12,0.61,-0.19,12.92,10649
17:55:44.745,106982,-1.11,0.70,-0.17,13.19,10650
17:55:44.758,106992,-1.09,0.78,-0.21,13.62,10651
17:55:44.769,107002,-1.06,0.83,-0.26,13.69,10652
17:55:44.771,107012,-1.07,0.79,-0.32,13.68,10653
17:55:44.787,107022,-1.19,0.77,-0.53,15.15,10654
17:55:44.792,107032,-1.25,0.74,-0.82,16.74,10655
17:55:44.802,107042,-1.31,0.72,-0.87,17.29,10656
17:55:44.812,107052,-1.35,0.58,-0.66,16.09,10657
17:55:44.829,107062,-1.45,0.37,-0.34,15.35,10658
17:55:44.830,107072,-1.54,0.32,0.06,15.72,10659
17:55:44.841,107082,-1.53,0.33,0.42,16.23,10660
17:55:44.852,107092,-1.79,0.17,0.78,19.61,10661
17:55:44.861,107102,-1.72,0.05,0.91,19.44,10662
17:55:44.878,107112,-1.50,-0.15,0.96,17.86,10663
17:55:44.880,107122,-1.37,-0.24,1.34,19.28,10664
17:55:44.892,107132,-1.00,0.13,1.38,17.05,10665
17:55:44.904,107142,-0.75,0.30,1.13,13.92,10666
17:55:44.910,107152,-0.53,0.71,0.55,10.45,10667
17:55:44.926,107162,-0.56,0.61,0.59,10.17,10668
17:55:44.930,107172,-0.10,1.23,0.59,13.67,10669
17:55:44.944,107182,-0.38,0.63,0.77,10.67,10670
17:55:44.952,107192,-0.48,0.21,0.61,8.08,10671
17:55:44.969,107202,-0.49,0.05,0.73,8.86,10672
17:55:44.971,107212,-0.56,0.13,0.72,9.17,10673
17:55:44.988,107222,-0.42,0.33,0.69,8.77,10674
17:55:44.992,107232,-0.35,0.29,0.72,8.53,10675
17:55:45.002,107242,-0.31,0.28,0.72,8.37,10676
17:55:45.018,107252,-0.30,0.29,0.69,8.03,10677
17:55:45.020,107262,-0.29,0.26,0.64,7.45,10678
17:55:45.036,107272,-0.28,0.22,0.67,7.54,10679
17:55:45.042,107282,-0.28,0.20,0.68,7.64,10680
17:55:45.052,107292,-0.30,0.24,0.71,8.04,10681
17:55:45.062,107302,-0.27,0.29,0.75,8.45,10682
17:55:45.070,107312,-0.23,0.37,0.74,8.59,10683
17:55:45.080,107322,-0.26,0.12,0.49,5.65,10684
17:55:45.091,107332,-0.22,0.51,0.65,8.51,10685
17:55:45.103,107342,-0.23,0.49,0.54,7.65,10686
17:55:45.119,107352,-0.31,0.46,0.54,7.75,10687
17:55:45.121,107362,-0.38,0.54,0.48,8.12,10688
17:55:45.137,107372,-0.49,0.48,0.56,8.88,10689
17:55:45.152,107382,-0.53,0.25,0.65,8.78,10690
17:55:45.153,107392,-0.58,0.30,0.60,8.89,10691
17:55:45.188,107402,-0.68,0.39,0.71,10.53,10692
17:55:45.189,107412,-0.68,0.34,0.65,10.02,10693
17:55:45.244,107422,-0.67,0.39,0.59,9.72,10694
17:55:45.246,107432,-0.66,0.41,0.52,9.34,10695
17:55:45.246,107442,-0.66,0.43,0.45,9.06,10696
17:55:45.284,107452,-0.68,0.51,0.39,9.31,10697
17:55:45.389,107462,-0.72,0.57,0.30,9.62,10698
17:55:45.389,107472,-0.75,0.55,0.17,9.47,10699
17:55:45.392,107482,-0.82,0.48,0.24,9.79,10700
17:55:45.392,107492,-0.90,0.36,0.27,10.07,10701
17:55:45.392,107502,-0.97,0.30,0.18,10.28,10702
17:55:45.392,107512,-0.93,0.16,-0.03,9.43,10703
17:55:45.392,107522,-0.82,0.12,-0.13,8.39,10704
17:55:45.398,107532,-0.69,0.23,-0.23,7.66,10705
17:55:45.400,107542,-0.54,0.41,-0.41,7.91,10706
17:55:45.400,107552,-0.47,0.44,-0.52,8.29,10707
17:55:45.400,107562,-0.52,0.40,-0.39,7.64,10708
17:55:45.402,107572,-0.69,0.30,-0.15,7.70,10709
17:55:45.403,107582,-0.79,0.17,0.04,8.13,10710
17:55:45.403,107592,-0.85,0.10,0.18,8.72,10711
17:55:45.403,107602,-1.26,0.54,0.13,13.79,10712
17:55:45.403,107612,-2.13,1.99,-0.37,29.37,10713
17:55:45.403,107622,-2.13,1.22,-0.54,25.10,10714
17:55:45.403,107632,-0.98,0.43,-0.18,10.88,10715
17:55:45.403,107642,-0.83,0.88,-0.30,12.54,10716
17:55:45.419,107652,-0.92,0.73,-0.18,11.87,10717
17:55:45.420,107662,-1.15,0.48,0.26,12.69,10718
17:55:45.430,107672,-0.98,0.50,0.76,13.35,10719
17:55:45.444,107682,-0.81,0.79,0.66,13.06,10720
17:55:45.451,107692,-0.57,1.01,0.41,12.34,10721
17:55:45.461,107702,-0.72,0.69,0.26,10.33,10722
17:55:45.472,107712,-0.98,0.39,0.18,10.67,10723
17:55:45.482,107722,-1.09,0.01,0.02,10.88,10724
17:55:45.492,107732,-1.16,-0.23,0.05,11.87,10725
17:55:45.508,107742,-1.13,-0.08,0.01,11.31,10726
17:55:45.512,107752,-1.07,0.15,-0.09,10.86,10727
17:55:45.531,107762,-0.98,0.42,-0.04,10.62,10728
17:55:45.531,107772,-0.93,0.56,-0.04,10.89,10729
17:55:45.548,107782,-0.94,0.51,-0.02,10.69,10730
17:55:45.551,107792,-0.99,0.40,0.05,10.73,10731
17:55:45.562,107802,-1.03,0.36,0.04,10.90,10732
17:55:45.572,107812,-1.01,0.34,-0.02,10.68,10733
17:55:45.594,107822,-0.98,0.35,-0.06,10.41,10734
17:55:45.595,107832,-0.99,0.37,-0.08,10.58,10735
17:55:45.602,107842,-1.02,0.37,-0.11,10.86,10736
17:55:45.612,107852,-1.03,0.37,-0.09,10.97,10737
17:55:45.621,107862,-1.01,0.35,-0.09,10.70,10738
17:55:45.634,107872,-1.03,0.31,-0.08,10.75,10739
17:55:45.641,107882,-0.98,0.37,-0.07,10.52,10740
17:55:45.651,107892,-0.96,0.38,-0.07,10.38,10741
17:55:45.662,107902,-0.96,0.38,-0.06,10.34,10742
17:55:45.678,107912,-0.95,0.39,-0.08,10.30,10743
17:55:45.687,107922,-0.95,0.42,-0.08,10.46,10744
17:55:45.690,107932,-0.95,0.43,-0.10,10.51,10745
17:55:45.704,107942,-0.95,0.45,-0.09,10.50,10746
17:55:45.712,107952,-0.95,0.45,-0.06,10.51,10747
17:55:45.722,107962,-0.96,0.41,-0.00,10.45,10748
17:55:45.733,107972,-0.97,0.41,0.07,10.53,10749
17:55:45.745,107982,-0.91,0.35,0.11,9.85,10750
17:55:45.754,107992,-0.93,0.39,0.25,10.43,10751
17:55:45.783,108002,-0.93,0.46,0.23,10.59,10752
17:55:45.788,108012,-0.96,0.47,0.27,11.01,10753
17:55:45.788,108022,-0.95,0.44,0.26,10.80,10754
17:55:45.790,108032,-0.96,0.41,0.21,10.68,10755
17:55:45.803,108042,-1.00,0.40,0.16,10.88,10756
17:55:45.813,108052,-1.03,0.42,0.15,11.20,10757
17:55:45.820,108062,-1.01,0.44,0.12,11.06,10758
17:55:45.835,108072,-1.02,0.45,0.08,11.13,10759
17:55:45.886,108082,-1.02,0.47,0.03,11.22,10760
17:55:45.886,108092,-1.03,0.48,0.01,11.35,10761
17:55:45.888,108102,-1.04,0.49,-0.04,11.49,10762
17:55:45.891,108112,-1.03,0.51,-0.06,11.51,10763
17:55:45.891,108122,-1.07,0.47,-0.10,11.70,10764
17:55:45.891,108132,-1.08,0.46,-0.12,11.76,10765
17:55:45.929,108142,-1.09,0.43,-0.15,11.83,10766
17:55:45.931,108152,-1.08,0.43,-0.18,11.73,10767
17:55:45.931,108162,-1.03,0.44,-0.21,11.38,10768
17:55:45.931,108172,-0.99,0.44,-0.22,11.10,10769
17:55:45.969,108182,-0.97,0.43,-0.21,10.87,10770
17:55:45.970,108192,-0.98,0.42,-0.20,10.85,10771
17:55:45.973,108202,-1.01,0.42,-0.17,11.04,10772
17:55:45.973,108212,-1.07,0.46,-0.13,11.74,10773
17:55:46.011,108222,-1.10,0.57,-0.11,12.42,10774
17:55:46.012,108232,-1.09,0.63,-0.13,12.62,10775
17:55:46.014,108242,-1.11,0.59,-0.16,12.61,10776
17:55:46.015,108252,-1.13,0.61,-0.18,12.92,10777
17:55:46.053,108262,-1.12,0.69,-0.21,13.28,10778
17:55:46.053,108272,-1.14,0.77,-0.25,13.99,10779
17:55:46.059,108282,-1.22,0.82,-0.61,15.86,10780
17:55:46.059,108292,-1.31,0.86,-0.78,17.47,10781
17:55:46.067,108302,-1.27,0.90,-0.69,17.00,10782
17:55:46.079,108312,-1.24,0.80,-0.54,15.68,10783
17:55:46.081,108322,-1.27,0.58,-0.26,14.17,10784
17:55:46.094,108332,-1.35,0.54,0.05,14.54,10785
17:55:46.105,108342,-1.36,0.40,0.51,15.07,10786
17:55:46.115,108352,-1.45,0.30,0.75,16.61,10787
17:55:46.124,108362,-1.39,0.15,0.83,16.27,10788
17:55:46.132,108372,-1.27,-0.06,0.92,15.72,10789
17:55:46.152,108382,-1.27,-0.00,1.23,17.70,10790
17:55:46.152,108392,-1.04,0.18,1.25,16.36,10791
17:55:46.163,108402,-0.79,0.41,0.90,12.65,10792
17:55:46.172,108412,-0.53,0.50,0.79,10.79,10793
17:55:46.182,108422,-0.32,0.57,0.87,10.91,10794
17:55:46.195,108432,-0.18,0.92,0.58,11.07,10795
17:55:46.200,108442,-0.38,0.50,0.79,10.06,10796
17:55:46.213,108452,-0.43,0.24,0.70,8.58,10797
17:55:46.221,108462,-0.47,0.19,0.74,9.02,10798
17:55:46.232,108472,-0.42,0.35,0.77,9.40,10799
17:55:46.240,108482,-0.33,0.47,0.72,9.20,10800
17:55:46.258,108492,-0.35,0.36,0.65,8.21,10801
17:55:46.262,108502,-0.32,0.33,0.67,8.14,10802
17:55:46.272,108512,-0.34,0.22,0.70,8.09,10803
17:55:46.288,108522,-0.25,0.20,0.68,7.50,10804
17:55:46.292,108532,-0.01,0.35,1.32,13.65,10805
17:55:46.301,108542,-0.31,0.20,0.77,8.50,10806
17:55:46.318,108552,-0.27,0.24,0.69,7.79,10807
17:55:46.320,108562,-0.25,0.31,0.67,7.72,10808
17:55:46.335,108572,-0.24,0.37,0.65,7.79,10809
17:55:46.340,108582,-0.25,0.43,0.63,8.01,10810
17:55:46.352,108592,-0.29,0.45,0.55,7.74,10811
17:55:46.363,108602,-0.36,0.41,0.46,7.19,10812
17:55:46.374,108612,-0.47,0.34,0.49,7.58,10813
17:55:46.380,108622,-0.55,0.32,0.52,8.25,10814
17:55:46.395,108632,-0.62,0.30,0.57,8.92,10815
17:55:46.400,108642,-0.62,0.31,0.56,8.94,10816
17:55:46.416,108652,-0.65,0.31,0.61,9.43,10817
17:55:46.429,108662,-0.65,0.35,0.58,9.41,10818
17:55:46.433,108672,-0.66,0.39,0.57,9.56,10819
17:55:46.445,108682,-0.65,0.44,0.52,9.42,10820
17:55:46.454,108692,-0.65,0.48,0.50,9.47,10821
17:55:46.463,108702,-0.71,0.50,0.45,9.78,10822
17:55:46.474,108712,-0.75,0.52,0.40,9.95,10823
17:55:46.485,108722,-0.81,0.57,0.34,10.48,10824
17:55:46.490,108732,-0.85,0.56,0.27,10.55,10825
17:55:46.505,108742,-0.85,0.41,0.29,9.85,10826
17:55:46.514,108752,-0.85,0.41,0.12,9.50,10827
17:55:46.523,108762,-0.81,0.34,0.06,8.84,10828
17:55:46.531,108772,-0.76,0.37,-0.00,8.43,10829
17:55:46.541,108782,-0.70,0.33,-0.12,7.80,10830
17:55:46.555,108792,-0.56,0.34,-0.31,7.21,10831
17:55:46.562,108802,-0.41,0.35,-0.45,7.04,10832
17:55:46.578,108812,-0.36,0.39,-0.47,7.05,10833
17:55:46.582,108822,-0.51,0.38,-0.21,6.73,10834
17:55:46.646,108832,-0.61,0.34,0.03,7.00,10835
17:55:46.649,108842,-0.72,0.32,0.22,8.23,10836
17:55:46.650,108852,-1.62,1.05,0.13,19.34,10837
17:55:46.652,108862,-2.13,1.99,-0.19,29.19,10838
17:55:46.683,108872,-1.62,0.87,-0.50,19.07,10839
17:55:46.684,108882,-0.65,1.08,0.01,12.63,10840
17:55:46.688,108892,-0.97,0.99,-0.08,13.86,10841
17:55:46.728,108902,-1.67,0.00,0.11,16.70,10842
17:55:46.728,108912,-1.59,-0.26,0.48,16.83,10843
17:55:46.728,108922,-1.22,-0.26,0.91,15.41,10844
17:55:46.839,108932,-0.66,0.75,0.55,11.41,10845
17:55:46.840,108942,-0.66,1.34,0.58,15.99,10846
17:55:46.843,108952,-0.45,1.22,-0.00,13.02,10847
17:55:46.844,108962,-0.77,0.63,-0.01,9.91,10848
17:55:46.845,108972,-0.89,0.11,-0.05,9.03,10849
17:55:46.848,108982,-1.15,-0.13,-0.07,11.56,10850
17:55:46.848,108992,-1.29,-0.25,0.03,13.14,10851
17:55:46.848,109002,-1.16,0.08,0.02,11.59,10852
17:55:46.848,109012,-1.00,0.47,-0.02,11.04,10853
17:55:46.850,109022,-0.85,0.67,-0.08,10.86,10854
17:55:46.850,109032,-0.87,0.54,-0.08,10.25,10855
17:55:46.853,109042,-0.99,0.37,-0.06,10.62,10856
17:55:46.853,109052,-1.08,0.28,-0.11,11.24,10857
17:55:46.855,109062,-1.06,0.30,-0.18,11.20,10858
17:55:46.859,109072,-1.02,0.35,-0.23,10.99,10859
17:55:46.859,109082,-0.99,0.40,-0.26,10.97,10860
17:55:46.859,109092,-0.98,0.41,-0.26,10.92,10861
17:55:46.860,109102,-0.99,0.38,-0.26,10.94,10862
17:55:46.873,109112,-1.00,0.36,-0.22,10.84,10863
17:55:46.885,109122,-0.99,0.37,-0.18,10.76,10864
17:55:46.896,109132,-0.96,0.40,-0.14,10.48,10865
17:55:46.901,109142,-0.94,0.42,-0.09,10.37,10866
17:55:46.910,109152,-0.93,0.42,-0.04,10.22,10867
17:55:46.923,109162,-0.92,0.44,-0.01,10.17,10868
17:55:46.932,109172,-0.92,0.44,0.00,10.26,10869
17:55:46.941,109182,-0.93,0.47,0.02,10.42,10870
17:55:46.952,109192,-0.92,0.48,0.03,10.37,10871
17:55:46.965,109202,-0.94,0.40,0.04,10.25,10872
17:55:46.973,109212,-0.96,0.36,0.11,10.30,10873
17:55:46.981,109222,-0.96,0.41,0.19,10.61,10874
17:55:46.991,109232,-0.94,0.45,0.24,10.66,10875
17:55:47.004,109242,-0.88,0.44,0.24,10.12,10876
17:55:47.010,109252,-0.88,0.48,0.26,10.36,10877
17:55:47.023,109262,-0.94,0.50,0.28,11.02,10878
17:55:47.032,109272,-0.98,0.45,0.24,11.07,10879
17:55:47.064,109282,-0.99,0.45,0.20,11.01,10880
17:55:47.064,109292,-0.98,0.45,0.15,10.87,10881
17:55:47.065,109302,-0.96,0.46,0.13,10.70,10882
17:55:47.071,109312,-0.94,0.50,0.09,10.72,10883
17:55:47.081,109322,-0.98,0.50,0.06,10.98,10884
17:55:47.091,109332,-0.99,0.52,0.04,11.16,10885
17:55:47.102,109342,-0.99,0.52,-0.02,11.22,10886
17:55:47.110,109352,-1.01,0.53,-0.07,11.37,10887
17:55:47.123,109362,-1.00,0.53,-0.08,11.40,10888
17:55:47.135,109372,-0.96,0.49,-0.08,10.85,10889
17:55:47.141,109382,-0.96,0.42,-0.08,10.49,10890
17:55:47.155,109392,-0.98,0.38,-0.06,10.48,10891
17:55:47.160,109402,-1.02,0.39,-0.04,10.88,10892
17:55:47.175,109412,-1.04,0.40,-0.06,11.16,10893
17:55:47.184,109422,-1.05,0.43,-0.08,11.36,10894
17:55:47.191,109432,-1.01,0.47,-0.12,11.25,10895
17:55:47.201,109442,-0.97,0.47,-0.15,10.90,10896
17:55:47.214,109452,-0.97,0.47,-0.17,10.94,10897
17:55:47.227,109462,-0.98,0.46,-0.18,10.91,10898
17:55:47.230,109472,-0.99,0.46,-0.18,11.05,10899
17:55:47.247,109482,-1.06,0.47,-0.18,11.68,10900
17:55:47.250,109492,-1.12,0.55,-0.18,12.57,10901
17:55:47.296,109502,-1.13,0.66,-0.18,13.25,10902
17:55:47.296,109512,-1.15,0.72,-0.23,13.74,10903
17:55:47.298,109522,-1.16,0.74,-0.26,13.99,10904
17:55:47.300,109532,-1.16,0.75,-0.23,13.99,10905
17:55:47.337,109542,-1.24,0.77,-0.47,15.37,10906
17:55:47.342,109552,-1.32,0.73,-0.75,16.86,10907
17:55:47.342,109562,-1.35,0.76,-0.73,17.11,10908
17:55:47.342,109572,-1.31,0.66,-0.49,15.50,10909
17:55:47.342,109582,-1.34,0.50,-0.20,14.41,10910
17:55:47.369,109592,-1.44,0.44,0.06,15.10,10911
17:55:47.370,109602,-1.48,0.40,0.36,15.82,10912
17:55:47.373,109612,-1.40,0.21,0.92,16.86,10913
17:55:47.410,109622,-1.28,0.13,0.95,16.06,10914
17:55:47.411,109632,-1.25,0.10,1.18,17.20,10915
17:55:47.413,109642,-1.42,0.10,1.26,18.98,10916
17:55:47.415,109652,-1.15,0.26,1.09,16.05,10917
17:55:47.453,109662,-0.74,0.40,0.87,12.05,10918
17:55:47.453,109672,-0.36,0.60,0.95,11.78,10919
17:55:47.455,109682,-0.34,0.72,0.59,9.90,10920
17:55:47.455,109692,-0.15,0.87,0.38,9.60,10921
17:55:47.488,109702,-0.30,0.47,0.68,8.81,10922
17:55:47.490,109712,-0.41,0.26,0.63,7.97,10923
17:55:47.493,109722,-0.42,0.36,0.70,8.93,10924
17:55:47.493,109732,-0.44,0.43,0.67,9.13,10925
17:55:47.503,109742,-0.42,0.36,0.71,8.99,10926
17:55:47.512,109752,-0.34,0.31,0.69,8.32,10927
17:55:47.528,109762,-0.29,0.31,0.66,7.89,10928
17:55:47.533,109772,-0.29,0.41,0.58,7.69,10929
17:55:47.541,109782,-0.38,0.13,0.75,8.46,10930
17:55:47.553,109792,-0.28,0.25,0.65,7.49,10931
17:55:47.565,109802,-0.37,0.29,0.46,6.61,10932
17:55:47.573,109812,-0.33,0.26,0.68,8.04,10933
17:55:47.590,109822,-0.23,0.34,0.62,7.40,10934
17:55:47.600,109832,-0.26,0.38,0.65,8.03,10935
17:55:47.604,109842,-0.29,0.43,0.59,7.85,10936
17:55:47.613,109852,-0.33,0.41,0.53,7.47,10937
17:55:47.628,109862,-0.37,0.37,0.55,7.57,10938
17:55:47.631,109872,-0.42,0.35,0.58,7.96,10939
17:55:47.642,109882,-0.51,0.32,0.64,8.78,10940
17:55:47.651,109892,-0.54,0.32,0.61,8.72,10941
17:55:47.669,109902,-0.57,0.31,0.63,9.07,10942
17:55:47.670,109912,-0.57,0.33,0.60,8.96,10943
17:55:47.682,109922,-0.60,0.36,0.61,9.29,10944
17:55:47.693,109932,-0.63,0.41,0.60,9.63,10945
17:55:47.703,109942,-0.70,0.44,0.59,10.14,10946
17:55:47.715,109952,-0.73,0.45,0.53,10.12,10947
17:55:47.721,109962,-0.76,0.47,0.46,10.08,10948
17:55:47.730,109972,-0.81,0.50,0.40,10.27,10949
17:55:47.741,109982,-0.84,0.53,0.29,10.34,10950
17:55:47.750,109992,-0.84,0.52,0.22,10.09,10951
17:55:47.768,110002,-0.89,0.47,0.22,10.27,10952
17:55:47.770,110012,-0.95,0.40,0.24,10.57,10953
17:55:47.784,110022,-0.95,0.35,0.12,10.23,10954
17:55:47.793,110032,-0.87,0.30,-0.01,9.23,10955
17:55:47.803,110042,-0.72,0.32,-0.20,8.11,10956
17:55:47.813,110052,-0.60,0.36,-0.48,8.55,10957
17:55:47.820,110062,-0.41,0.50,-0.84,10.65,10958
17:55:47.837,110072,-0.31,0.56,-0.74,9.74,10959
17:55:47.843,110082,-0.58,0.35,-0.38,7.77,10960
17:55:47.851,110092,-0.76,0.14,-0.06,7.70,10961
17:55:47.861,110102,-0.79,0.06,0.18,8.16,10962
17:55:47.870,110112,-0.73,0.12,0.27,7.84,10963
17:55:47.884,110122,-0.67,0.22,0.42,8.21,10964
17:55:47.891,110132,-0.94,0.60,0.36,11.72,10965
17:55:47.901,110142,-2.13,2.00,-0.64,29.85,10966
17:55:47.916,110152,-2.13,1.48,-0.36,26.14,10967
17:55:47.920,110162,-1.18,0.35,-0.03,12.31,10968
17:55:47.941,110172,-0.80,0.47,-0.47,10.43,10969
17:55:47.950,110182,-1.24,0.19,-0.12,12.63,10970
17:55:47.952,110192,-1.33,0.07,0.46,14.13,10971
17:55:47.967,110202,-1.03,0.47,1.02,15.25,10972
17:55:47.976,110212,-0.72,1.04,0.63,14.15,10973
17:55:47.981,110222,-0.62,1.29,0.55,15.36,10974
17:55:47.997,110232,-0.49,1.25,0.13,13.43,10975
17:55:48.068,110242,-0.84,0.38,0.05,9.27,10976
17:55:48.068,110252,-1.04,-0.05,-0.11,10.51,10977
17:55:48.068,110262,-1.15,-0.34,-0.03,12.02,10978
17:55:48.118,110272,-1.19,-0.20,-0.08,12.14,10979
17:55:48.234,110282,-1.11,0.21,-0.09,11.34,10980
17:55:48.235,110292,-1.01,0.48,-0.11,11.28,10981
17:55:48.235,110302,-0.92,0.55,-0.16,10.84,10982
17:55:48.235,110312,-0.92,0.47,-0.12,10.43,10983
17:55:48.257,110322,-0.99,0.38,-0.09,10.69,10984
17:55:48.259,110332,-1.00,0.36,-0.11,10.69,10985
17:55:48.259,110342,-0.97,0.37,-0.15,10.49,10986
17:55:48.260,110352,-0.98,0.33,-0.17,10.46,10987
17:55:48.262,110362,-1.03,0.32,-0.16,10.95,10988
17:55:48.268,110372,-1.07,0.32,-0.16,11.31,10989
17:55:48.268,110382,-1.04,0.32,-0.14,11.02,10990
17:55:48.268,110392,-1.02,0.34,-0.11,10.76,10991
17:55:48.268,110402,-1.01,0.31,-0.06,10.59,10992
17:55:48.268,110412,-0.99,0.33,-0.01,10.46,10993
17:55:48.268,110422,-0.96,0.36,0.03,10.27,10994
17:55:48.268,110432,-0.93,0.37,0.04,10.03,10995
17:55:48.268,110442,-0.93,0.40,0.05,10.17,10996
17:55:48.268,110452,-0.96,0.40,0.03,10.41,10997
17:55:48.268,110462,-0.97,0.35,0.03,10.32,10998
17:55:48.269,110472,-0.99,0.41,0.00,10.71,10999
17:55:48.269,110482,-1.00,0.42,0.01,10.83,11000
17:55:48.269,110492,-0.97,0.33,0.06,10.22,11001
17:55:48.269,110502,-0.93,0.39,0.12,10.21,11002
17:55:48.270,110512,-0.91,0.31,0.15,9.71,11003
17:55:48.286,110522,-0.92,0.47,0.26,10.61,11004
17:55:48.290,110532,-0.95,0.54,0.26,11.21,11005
17:55:48.304,110542,-0.99,0.46,0.26,11.20,11006
17:55:48.312,110552,-0.98,0.39,0.24,10.86,11007
17:55:48.345,110562,-0.97,0.40,0.19,10.66,11008
17:55:48.345,110572,-0.97,0.45,0.14,10.84,11009
17:55:48.346,110582,-1.00,0.46,0.11,11.10,11010
17:55:48.351,110592,-1.02,0.46,0.08,11.21,11011
17:55:48.362,110602,-1.02,0.47,0.02,11.28,11012
17:55:48.371,110612,-1.02,0.47,-0.03,11.24,11013
17:55:48.380,110622,-1.02,0.52,-0.08,11.43,11014
17:55:48.393,110632,-1.00,0.52,-0.11,11.36,11015
17:55:48.402,110642,-1.01,0.48,-0.13,11.23,11016
17:55:48.418,110652,-1.02,0.42,-0.14,11.06,11017
17:55:48.420,110662,-1.05,0.37,-0.10,11.16,11018
17:55:48.430,110672,-1.05,0.37,-0.07,11.19,11019
17:55:48.444,110682,-1.04,0.39,-0.09,11.17,11020
17:55:48.453,110692,-1.02,0.40,-0.09,11.02,11021
17:55:48.465,110702,-0.99,0.44,-0.12,10.96,11022
17:55:48.471,110712,-0.98,0.47,-0.14,10.95,11023
17:55:48.480,110722,-0.97,0.46,-0.16,10.88,11024
17:55:48.497,110732,-0.97,0.46,-0.17,10.92,11025
17:55:48.501,110742,-1.01,0.45,-0.16,11.17,11026
17:55:48.510,110752,-1.08,0.47,-0.16,11.88,11027
17:55:48.521,110762,-1.12,0.54,-0.14,12.55,11028
17:55:48.530,110772,-1.12,0.64,-0.15,12.99,11029
17:55:48.543,110782,-1.15,0.68,-0.20,13.54,11030
17:55:48.552,110792,-1.16,0.73,-0.25,13.93,11031
17:55:48.567,110802,-1.15,0.81,-0.27,14.31,11032
17:55:48.572,110812,-1.20,0.87,-0.51,15.73,11033
17:55:48.582,110822,-1.29,0.86,-0.69,16.93,11034
17:55:48.597,110832,-1.35,0.85,-0.75,17.62,11035
17:55:48.601,110842,-1.29,0.69,-0.56,15.69,11036
17:55:48.610,110852,-1.36,0.45,-0.28,14.64,11037
17:55:48.627,110862,-1.44,0.24,0.23,14.76,11038
17:55:48.630,110872,-1.58,0.05,0.81,17.79,11039
17:55:48.642,110882,-1.28,0.24,0.97,16.24,11040
17:55:48.651,110892,-1.35,0.13,0.96,16.64,11041
17:55:48.663,110902,-1.37,0.13,1.01,17.11,11042
17:55:48.670,110912,-1.26,0.20,1.23,17.73,11043
17:55:48.685,110922,-0.90,0.36,1.16,15.16,11044
17:55:48.690,110932,-0.64,0.49,0.92,12.20,11045
17:55:48.703,110942,-0.37,0.57,0.88,11.11,11046
17:55:48.713,110952,-0.18,1.02,0.60,11.98,11047
17:55:48.724,110962,-0.42,0.58,0.61,9.41,11048
17:55:48.769,110972,-0.41,0.24,0.73,8.68,11049
17:55:48.770,110982,-0.52,0.15,0.72,9.01,11050
17:55:48.770,110992,-0.43,0.30,0.67,8.54,11051
17:55:48.772,111002,-0.42,0.34,0.70,8.78,11052
17:55:48.772,111012,-0.43,0.24,0.71,8.60,11053
17:55:48.809,111022,-0.39,0.26,0.68,8.27,11054
17:55:48.812,111032,-0.35,0.25,0.64,7.72,11055
17:55:48.812,111042,-0.36,0.18,0.61,7.33,11056
17:55:48.813,111052,-0.37,0.17,0.66,7.78,11057
17:55:48.852,111062,-0.38,0.18,0.68,8.01,11058
17:55:48.852,111072,-0.35,0.23,0.66,7.85,11059
17:55:48.853,111082,-0.30,0.31,0.70,8.22,11060
17:55:48.854,111092,-0.33,0.43,0.63,8.29,11061
17:55:48.892,111102,-0.26,0.40,0.69,8.42,11062
17:55:48.894,111112,-0.28,0.43,0.62,8.03,11063
17:55:48.894,111122,-0.32,0.41,0.58,7.79,11064
17:55:48.895,111132,-0.36,0.35,0.58,7.64,11065
17:55:48.934,111142,-0.41,0.32,0.58,7.77,11066
17:55:48.936,111152,-0.49,0.30,0.59,8.24,11067
17:55:48.936,111162,-0.52,0.32,0.59,8.45,11068
17:55:48.938,111172,-0.53,0.31,0.60,8.56,11069
17:55:48.961,111182,-0.53,0.34,0.61,8.72,11070
17:55:48.961,111192,-0.52,0.37,0.62,8.89,11071
17:55:48.961,111202,-0.54,0.41,0.61,9.10,11072
17:55:48.973,111212,-0.56,0.44,0.57,9.16,11073
17:55:48.980,111222,-0.62,0.43,0.57,9.52,11074
17:55:48.991,111232,-0.69,0.45,0.55,9.93,11075
17:55:49.005,111242,-0.75,0.45,0.46,9.88,11076
17:55:49.013,111252,-0.81,0.42,0.38,9.87,11077
17:55:49.024,111262,-0.84,0.47,0.29,10.04,11078
17:55:49.036,111272,-0.84,0.44,0.19,9.63,11079
17:55:49.040,111282,-0.84,0.38,0.08,9.29,11080
17:55:49.058,111292,-0.85,0.41,0.13,9.56,11081
17:55:49.060,111302,-0.90,0.40,0.16,9.95,11082
17:55:49.077,111312,-0.89,0.37,0.00,9.64,11083
17:55:49.080,111322,-0.78,0.25,-0.12,8.33,11084
17:55:49.091,111332,-0.66,0.24,-0.30,7.63,11085
17:55:49.101,111342,-0.50,0.31,-0.51,7.77,11086
17:55:49.111,111352,-0.39,0.42,-0.66,8.74,11087
17:55:49.122,111362,-0.48,0.45,-0.51,8.32,11088
17:55:49.135,111372,-0.69,0.28,-0.18,7.63,11089
17:55:49.144,111382,-0.79,0.14,0.08,8.09,11090
17:55:49.152,111392,-0.82,0.10,0.25,8.61,11091
17:55:49.163,111402,-1.27,0.63,0.15,14.23,11092
17:55:49.170,111412,-2.13,2.00,-0.33,29.34,11093
17:55:49.182,111422,-2.02,1.00,-0.29,22.69,11094
17:55:49.190,111432,-0.66,0.72,0.07,9.83,11095
17:55:49.204,111442,-0.82,0.87,-0.23,12.13,11096
17:55:49.217,111452,-1.26,0.39,0.09,13.23,11097
17:55:49.220,111462,-1.29,0.23,0.51,14.07,11098
17:55:49.235,111472,-0.88,0.43,1.00,14.00,11099
17:55:49.245,111482,-0.72,0.92,0.52,12.76,11100
17:55:49.253,111492,-0.70,0.83,0.37,11.46,11101
17:55:49.264,111502,-0.82,0.50,0.20,9.80,11102
17:55:49.274,111512,-1.03,0.26,-0.03,10.66,11103
17:55:49.281,111522,-1.09,-0.04,-0.03,10.95,11104
17:55:49.290,111532,-1.04,-0.12,-0.02,10.51,11105
17:55:49.301,111542,-0.99,0.08,-0.11,10.01,11106
17:55:49.311,111552,-0.99,0.37,-0.05,10.61,11107
17:55:49.320,111562,-0.95,0.60,-0.10,11.29,11108
17:55:49.330,111572,-0.93,0.45,-0.10,10.40,11109
17:55:49.379,111582,-1.01,0.34,-0.05,10.64,11110
17:55:49.379,111592,-1.08,0.28,-0.06,11.14,11111
17:55:49.379,111602,-1.05,0.25,-0.09,10.78,11112
17:55:49.379,111612,-1.01,0.28,-0.11,10.55,11113
17:55:49.395,111622,-1.00,0.34,-0.11,10.59,11114
17:55:49.396,111632,-0.99,0.39,-0.10,10.73,11115
17:55:49.403,111642,-0.99,0.41,-0.09,10.73,11116
17:55:49.417,111652,-0.98,0.40,-0.08,10.64,11117
17:55:49.421,111662,-1.00,0.32,-0.07,10.48,11118
17:55:49.435,111672,-1.06,0.21,-0.02,10.80,11119
17:55:49.440,111682,-1.02,0.27,0.07,10.52,11120
17:55:49.454,111692,-0.98,0.36,0.13,10.56,11121
17:55:49.464,111702,-0.93,0.44,0.17,10.43,11122
17:55:49.471,111712,-0.91,0.50,0.18,10.51,11123
17:55:49.484,111722,-0.91,0.50,0.17,10.55,11124
17:55:49.490,111732,-0.94,0.48,0.15,10.70,11125
17:55:49.505,111742,-0.95,0.46,0.15,10.70,11126
17:55:49.537,111752,-1.00,0.46,0.14,11.08,11127
17:55:49.546,111762,-0.97,0.43,0.15,10.74,11128
17:55:49.587,111772,-0.92,0.39,0.17,10.12,11129
17:55:49.626,111782,-0.97,0.45,0.20,10.86,11130
17:55:49.627,111792,-0.97,0.45,0.19,10.89,11131
17:55:49.630,111802,-0.97,0.45,0.21,10.92,11132
17:55:49.679,111812,-0.94,0.44,0.15,10.52,11133
17:55:49.679,111822,-0.95,0.43,0.09,10.42,11134
17:55:49.684,111832,-0.97,0.44,0.04,10.72,11135
17:55:49.684,111842,-1.01,0.47,0.01,11.12,11136
17:55:49.684,111852,-1.01,0.51,-0.03,11.31,11137
17:55:49.718,111862,-0.98,0.52,-0.06,11.14,11138
17:55:49.721,111872,-0.95,0.53,-0.08,10.92,11139
17:55:49.721,111882,-0.98,0.51,-0.07,11.04,11140
17:55:49.721,111892,-1.01,0.46,-0.06,11.09,11141
17:55:49.721,111902,-1.01,0.40,-0.06,10.91,11142
17:55:49.721,111912,-1.05,0.36,-0.05,11.11,11143
17:55:49.721,111922,-1.10,0.37,-0.04,11.60,11144
17:55:49.722,111932,-1.11,0.40,-0.07,11.87,11145
17:55:49.723,111942,-1.09,0.45,-0.14,11.86,11146
17:55:49.724,111952,-1.05,0.46,-0.21,11.63,11147
17:55:49.725,111962,-0.97,0.49,-0.25,11.16,11148
17:55:49.753,111972,-0.94,0.49,-0.24,10.93,11149
17:55:49.754,111982,-0.94,0.50,-0.22,10.86,11150
17:55:49.758,111992,-0.90,0.53,-0.19,10.60,11151
17:55:49.793,112002,-0.89,0.55,-0.16,10.56,11152
17:55:49.795,112012,-0.98,0.56,-0.13,11.36,11153
17:55:49.796,112022,-1.08,0.63,-0.12,12.60,11154
17:55:49.796,112032,-1.08,0.80,-0.13,13.52,11155
17:55:49.814,112042,-1.06,0.91,-0.21,14.14,11156
17:55:49.815,112052,-1.09,0.92,-0.24,14.48,11157
17:55:49.820,112062,-1.15,0.94,-0.44,15.51,11158
17:55:49.837,112072,-1.17,0.96,-0.69,16.57,11159
17:55:49.842,112082,-1.26,0.89,-0.86,17.69,11160
17:55:49.860,112092,-1.35,0.67,-0.83,17.19,11161
17:55:49.866,112102,-1.47,0.42,-0.43,15.87,11162
17:55:49.873,112112,-1.66,0.20,-0.01,16.72,11163
17:55:49.887,112122,-1.61,0.02,0.53,16.95,11164
17:55:49.896,112132,-1.60,-0.01,0.85,18.14,11165
17:55:49.900,112142,-1.73,-0.05,1.01,20.08,11166
17:55:49.912,112152,-1.61,0.00,1.10,19.47,11167
17:55:49.929,112162,-1.44,0.09,1.27,19.24,11168
17:55:49.931,112172,-0.93,0.32,1.26,15.96,11169
17:55:49.942,112182,-0.62,0.49,0.96,12.45,11170
17:55:49.952,112192,-0.40,0.55,0.95,11.68,11171
17:55:49.963,112202,-0.14,1.40,0.33,14.48,11172
17:55:49.972,112212,-0.28,0.75,0.69,10.57,11173
17:55:49.980,112222,-0.53,0.32,0.56,8.37,11174
17:55:49.991,112232,-0.51,0.11,0.69,8.66,11175
17:55:50.002,112242,-0.59,-0.02,0.75,9.51,11176
17:55:50.013,112252,-0.44,0.16,0.83,9.57,11177
17:55:50.029,112262,-0.37,0.32,0.75,8.89,11178
17:55:50.032,112272,-0.39,0.14,0.68,7.93,11179
17:55:50.041,112282,-0.34,0.21,0.64,7.55,11180
17:55:50.054,112292,-0.33,0.22,0.65,7.60,11181
17:55:50.063,112302,-0.30,0.17,0.65,7.41,11182
17:55:50.074,112312,-0.32,0.14,0.69,7.72,11183
17:55:50.080,112322,-0.30,0.16,0.71,7.85,11184
17:55:50.096,112332,-0.27,0.17,0.67,7.48,11185
17:55:50.100,112342,-0.26,0.22,0.69,7.65,11186
17:55:50.116,112352,-0.29,0.28,0.71,8.14,11187
17:55:50.121,112362,-0.29,0.32,0.67,8.01,11188
17:55:50.133,112372,-0.31,0.33,0.61,7.61,11189
17:55:50.143,112382,-0.35,0.31,0.59,7.56,11190
17:55:50.151,112392,-0.38,0.29,0.61,7.77,11191
17:55:50.171,112402,-0.43,0.27,0.63,8.09,11192
17:55:50.171,112412,-0.47,0.27,0.68,8.68,11193
17:55:50.184,112422,-0.46,0.28,0.79,9.60,11194
17:55:50.193,112432,-0.50,0.33,0.71,9.27,11195
17:55:50.200,112442,-0.51,0.34,0.71,9.39,11196
17:55:50.211,112452,-0.53,0.37,0.69,9.43,11197
17:55:50.221,112462,-0.58,0.38,0.64,9.41,11198
17:55:50.238,112472,-0.64,0.39,0.64,9.87,11199
17:55:50.243,112482,-0.73,0.42,0.62,10.46,11200
17:55:50.254,112492,-0.78,0.44,0.47,10.12,11201
17:55:50.265,112502,-0.77,0.46,0.32,9.48,11202
17:55:50.317,112512,-0.77,0.43,0.29,9.28,11203
17:55:50.317,112522,-0.82,0.69,0.30,11.13,11204
17:55:50.317,112532,-0.85,0.43,-0.01,9.58,11205
17:55:50.319,112542,-1.02,0.35,0.25,11.08,11206
17:55:50.321,112552,-0.98,0.19,0.14,10.03,11207
17:55:50.322,112562,-0.86,0.13,-0.01,8.71,11208
17:55:50.354,112572,-0.68,0.19,-0.19,7.28,11209
17:55:50.354,112582,-0.51,0.34,-0.36,7.06,11210
17:55:50.356,112592,-0.33,0.50,-0.61,8.55,11211
17:55:50.394,112602,-0.34,0.46,-0.58,8.10,11212
17:55:50.399,112612,-0.44,0.38,-0.27,6.43,11213
17:55:50.399,112622,-0.52,0.22,0.05,5.67,11214
17:55:50.399,112632,-0.69,0.17,0.21,7.42,11215
17:55:50.400,112642,-1.88,1.07,0.02,21.62,11216
17:55:50.436,112652,-2.13,1.91,-0.08,28.58,11217
17:55:50.437,112662,-1.92,0.94,-0.32,21.59,11218
17:55:50.439,112672,-0.59,0.83,-0.35,10.77,11219
17:55:50.440,112682,-1.35,0.22,-0.18,13.81,11220
17:55:50.477,112692,-1.48,-0.04,0.38,15.30,11221
17:55:50.481,112702,-1.12,0.08,1.08,15.58,11222
17:55:50.481,112712,-0.75,0.98,0.81,14.76,11223
17:55:50.482,112722,-0.59,1.44,0.47,16.30,11224
17:55:50.504,112732,-0.39,1.48,0.09,15.35,11225
17:55:50.513,112742,-0.71,0.69,-0.06,9.90,11226
17:55:50.513,112752,-0.95,-0.06,-0.21,9.74,11227
17:55:50.520,112762,-1.20,-0.36,0.05,12.50,11228
17:55:50.532,112772,-1.30,-0.42,0.07,13.68,11229
17:55:50.541,112782,-1.21,-0.01,-0.01,12.08,11230
17:55:50.551,112792,-1.02,0.40,-0.09,10.99,11231
17:55:50.562,112802,-0.85,0.54,-0.08,10.11,11232
17:55:50.572,112812,-0.89,0.50,-0.03,10.22,11233
17:55:50.583,112822,-1.00,0.39,0.02,10.74,11234
17:55:50.591,112832,-1.04,0.27,0.06,10.75,11235
17:55:50.601,112842,-0.99,0.28,0.04,10.29,11236
17:55:50.615,112852,-0.97,0.35,0.01,10.30,11237
17:55:50.622,112862,-0.97,0.41,-0.01,10.56,11238
17:55:50.632,112872,-0.98,0.47,-0.03,10.85,11239
17:55:50.642,112882,-0.96,0.44,-0.06,10.60,11240
17:55:50.650,112892,-0.99,0.39,-0.05,10.68,11241
17:55:50.664,112902,-1.02,0.33,-0.03,10.72,11242
17:55:50.678,112912,-1.02,0.30,0.00,10.60,11243
17:55:50.685,112922,-0.98,0.31,0.03,10.31,11244
17:55:50.698,112932,-0.95,0.39,0.05,10.29,11245
17:55:50.746,112942,-0.94,0.45,0.07,10.47,11246
17:55:50.746,112952,-0.93,0.48,0.06,10.52,11247
17:55:50.751,112962,-0.94,0.48,0.06,10.56,11248
17:55:50.751,112972,-0.96,0.46,0.08,10.67,11249
17:55:50.753,112982,-0.99,0.43,0.10,10.86,11250
17:55:50.754,112992,-1.00,0.42,0.13,10.92,11251
17:55:50.760,113002,-0.96,0.39,0.16,10.49,11252
17:55:50.770,113012,-0.95,0.38,0.13,10.35,11253
17:55:50.781,113022,-1.01,0.41,0.17,11.01,11254
17:55:50.791,113032,-0.97,0.43,0.15,10.74,11255
17:55:50.804,113042,-0.99,0.45,0.13,10.97,11256
17:55:50.815,113052,-0.99,0.42,0.10,10.85,11257
17:55:50.823,113062,-0.97,0.42,0.06,10.56,11258
17:55:50.831,113072,-0.96,0.44,0.03,10.58,11259
17:55:50.846,113082,-0.98,0.45,0.03,10.81,11260
17:55:50.851,113092,-1.00,0.47,0.04,11.05,11261
17:55:50.860,113102,-1.00,0.47,0.03,11.06,11262
17:55:50.870,113112,-0.99,0.46,0.02,10.93,11263
17:55:50.903,113122,-0.97,0.46,-0.00,10.73,11264
17:55:50.916,113132,-0.96,0.43,-0.02,10.56,11265
17:55:50.918,113142,-0.95,0.40,-0.04,10.33,11266
17:55:50.919,113152,-0.98,0.35,-0.05,10.37,11267
17:55:50.933,113162,-1.01,0.33,-0.06,10.62,11268
17:55:50.935,113172,-1.02,0.37,-0.08,10.89,11269
17:55:50.951,113182,-1.01,0.40,-0.13,10.93,11270
17:55:50.952,113192,-0.97,0.44,-0.15,10.80,11271
17:55:50.966,113202,-0.94,0.47,-0.18,10.71,11272
17:55:50.970,113212,-0.95,0.49,-0.23,10.95,11273
17:55:50.986,113222,-0.97,0.47,-0.26,11.08,11274
17:55:50.993,113232,-1.00,0.47,-0.24,11.25,11275
17:55:51.002,113242,-1.04,0.50,-0.20,11.74,11276
17:55:51.042,113252,-1.07,0.59,-0.17,12.39,11277
17:55:51.043,113262,-1.12,0.68,-0.15,13.18,11278
17:55:51.044,113272,-1.16,0.72,-0.15,13.70,11279
17:55:51.045,113282,-1.16,0.80,-0.19,14.24,11280
17:55:51.083,113292,-1.17,0.83,-0.20,14.48,11281
17:55:51.084,113302,-1.30,0.81,-0.51,16.10,11282
17:55:51.085,113312,-1.40,0.87,-0.71,17.91,11283
17:55:51.086,113322,-1.34,0.91,-0.68,17.57,11284
17:55:51.117,113332,-1.32,0.72,-0.43,15.61,11285
17:55:51.120,113342,-1.33,0.50,-0.17,14.35,11286
17:55:51.121,113352,-1.37,0.36,0.16,14.30,11287
17:55:51.121,113362,-1.45,0.34,0.47,15.57,11288
17:55:51.155,113372,-1.36,0.30,0.83,16.22,11289
17:55:51.155,113382,-1.29,0.14,0.95,16.04,11290
17:55:51.155,113392,-1.25,0.08,1.07,16.50,11291
17:55:51.191,113402,-1.29,0.07,1.31,18.36,11292
17:55:51.193,113412,-0.96,0.29,1.13,15.10,11293
17:55:51.194,113422,-0.66,0.47,0.82,11.55,11294
17:55:51.195,113432,-0.47,0.53,0.77,10.42,11295
17:55:51.235,113442,-0.21,0.69,0.79,10.67,11296
17:55:51.235,113452,-0.23,1.20,0.14,12.25,11297
17:55:51.235,113462,-0.42,0.21,0.63,7.88,11298
17:55:51.236,113472,-0.45,0.19,0.69,8.44,11299
17:55:51.250,113482,-0.53,0.24,0.64,8.60,11300
17:55:51.251,113492,-0.51,0.30,0.71,9.27,11301
17:55:51.261,113502,-0.47,0.32,0.72,9.16,11302
17:55:51.271,113512,-0.37,0.36,0.61,7.97,11303
17:55:51.285,113522,-0.32,0.18,0.67,7.65,11304
17:55:51.291,113532,-0.38,0.25,0.71,8.44,11305
17:55:51.306,113542,-0.38,0.20,0.71,8.28,11306
17:55:51.311,113552,-0.36,0.23,0.71,8.31,11307
17:55:51.320,113562,-0.35,0.28,0.71,8.36,11308
17:55:51.331,113572,-0.32,0.33,0.71,8.46,11309
17:55:51.344,113582,-0.30,0.40,0.75,9.05,11310
17:55:51.350,113592,-0.32,0.44,0.65,8.42,11311
17:55:51.368,113602,-0.32,0.43,0.59,8.01,11312
17:55:51.372,113612,-0.33,0.38,0.59,7.78,11313
17:55:51.388,113622,-0.39,0.36,0.61,8.07,11314
17:55:51.391,113632,-0.43,0.35,0.64,8.44,11315
17:55:51.401,113642,-0.45,0.36,0.63,8.53,11316
17:55:51.416,113652,-0.49,0.38,0.64,8.90,11317
17:55:51.424,113662,-0.52,0.34,0.69,9.27,11318
17:55:51.435,113672,-0.49,0.36,0.65,8.88,11319
17:55:51.445,113682,-0.51,0.35,0.63,8.80,11320
17:55:51.453,113692,-0.53,0.36,0.58,8.67,11321
17:55:51.466,113702,-0.59,0.37,0.54,8.80,11322
17:55:51.475,113712,-0.64,0.40,0.54,9.28,11323
17:55:51.483,113722,-0.73,0.45,0.53,10.09,11324
17:55:51.492,113732,-0.76,0.50,0.41,9.97,11325
17:55:51.504,113742,-0.75,0.47,0.31,9.33,11326
17:55:51.512,113752,-0.70,0.51,0.17,8.85,11327
17:55:51.526,113762,-0.74,0.50,0.20,9.14,11328
17:55:51.532,113772,-0.86,0.35,0.12,9.42,11329
17:55:51.542,113782,-0.88,0.37,0.18,9.72,11330
17:55:51.559,113792,-0.87,0.26,0.00,9.07,11331
17:55:51.560,113802,-0.78,0.22,-0.15,8.27,11332
17:55:51.570,113812,-0.67,0.24,-0.24,7.54,11333
17:55:51.587,113822,-0.55,0.30,-0.37,7.26,11334
17:55:51.592,113832,-0.47,0.32,-0.47,7.35,11335
17:55:51.600,113842,-0.44,0.42,-0.38,7.23,11336
17:55:51.616,113852,-0.56,0.34,-0.11,6.63,11337
17:55:51.624,113862,-0.61,0.28,0.13,6.89,11338
17:55:51.635,113872,-0.77,0.40,0.22,8.99,11339
17:55:51.644,113882,-2.13,1.66,-0.27,27.13,11340
17:55:51.653,113892,-2.13,1.50,-0.22,26.12,11341
17:55:51.663,113902,-1.42,0.63,0.07,15.53,11342
17:55:51.675,113912,-0.90,0.60,-0.29,11.25,11343
17:55:51.683,113922,-1.62,-0.13,-0.13,16.34,11344
17:55:51.735,113932,-1.72,-0.42,0.36,18.07,11345
17:55:51.736,113942,-1.22,-0.23,0.83,14.94,11346
17:55:51.736,113952,-0.46,0.95,0.54,11.82,11347
17:55:51.738,113962,-0.58,1.57,0.50,17.47,11348
17:55:51.739,113972,-0.39,1.69,0.04,17.38,11349
17:55:51.740,113982,-0.59,0.80,-0.12,10.01,11350
17:55:51.777,113992,-0.86,0.19,-0.11,8.85,11351
17:55:51.777,114002,-1.09,-0.26,-0.03,11.19,11352
17:55:51.781,114012,-1.29,-0.36,0.08,13.47,11353
17:55:51.782,114022,-1.25,-0.19,0.02,12.69,11354
17:55:51.809,114032,-1.06,0.35,-0.03,11.17,11355
17:55:51.809,114042,-0.87,0.60,-0.11,10.62,11356
17:55:51.812,114052,-0.78,0.67,-0.13,10.36,11357
17:55:51.850,114062,-0.88,0.54,-0.10,10.38,11358
17:55:51.851,114072,-1.01,0.37,-0.07,10.75,11359
17:55:51.856,114082,-1.05,0.26,-0.04,10.78,11360
17:55:51.856,114092,-1.04,0.28,-0.04,10.73,11361
17:55:51.894,114102,-1.02,0.36,-0.04,10.83,11362
17:55:51.894,114112,-0.99,0.39,-0.04,10.60,11363
17:55:51.896,114122,-0.98,0.40,-0.01,10.56,11364
17:55:51.896,114132,-1.00,0.37,0.01,10.65,11365
17:55:51.929,114142,-0.99,0.37,0.03,10.61,11366
17:55:51.929,114152,-0.99,0.37,0.04,10.55,11367
17:55:51.930,114162,-0.99,0.35,0.03,10.48,11368
17:55:51.930,114172,-1.00,0.34,0.07,10.60,11369
17:55:51.944,114182,-0.96,0.37,0.06,10.34,11370
17:55:51.952,114192,-0.95,0.42,0.06,10.40,11371
17:55:51.968,114202,-0.95,0.43,0.04,10.40,11372
17:55:51.972,114212,-0.95,0.44,0.02,10.43,11373
17:55:51.981,114222,-0.96,0.43,0.03,10.55,11374
17:55:51.995,114232,-0.95,0.43,0.06,10.42,11375
17:55:52.028,114242,-0.96,0.43,0.08,10.50,11376
17:55:52.032,114252,-0.96,0.41,0.13,10.55,11377
17:55:52.032,114262,-0.96,0.38,0.16,10.41,11378
17:55:52.033,114272,-0.94,0.41,0.18,10.44,11379
17:55:52.042,114282,-0.95,0.42,0.19,10.57,11380
17:55:52.055,114292,-0.95,0.45,0.17,10.65,11381
17:55:52.061,114302,-0.96,0.44,0.13,10.66,11382
17:55:52.078,114312,-1.00,0.39,0.10,10.73,11383
17:55:52.081,114322,-0.99,0.39,0.07,10.61,11384
17:55:52.098,114332,-0.99,0.42,0.05,10.73,11385
17:55:52.100,114342,-0.99,0.43,0.06,10.82,11386
17:55:52.111,114352,-0.99,0.46,0.07,10.93,11387
17:55:52.120,114362,-0.98,0.49,0.07,10.94,11388
17:55:52.135,114372,-0.98,0.50,0.06,11.07,11389
17:55:52.142,114382,-0.98,0.50,0.03,11.02,11390
17:55:52.155,114392,-0.99,0.47,-0.00,10.95,11391
17:55:52.184,114402,-1.02,0.42,-0.00,11.01,11392
17:55:52.187,114412,-1.03,0.40,-0.00,11.10,11393
17:55:52.189,114422,-1.05,0.40,-0.03,11.25,11394
17:55:52.193,114432,-1.06,0.41,-0.06,11.38,11395
17:55:52.203,114442,-1.06,0.42,-0.08,11.40,11396
17:55:52.211,114452,-1.04,0.41,-0.13,11.27,11397
17:55:52.224,114462,-1.01,0.42,-0.13,11.04,11398
17:55:52.266,114472,-1.00,0.43,-0.15,10.99,11399
17:55:52.266,114482,-1.00,0.42,-0.14,10.95,11400
17:55:52.268,114492,-1.00,0.43,-0.14,10.92,11401
17:55:52.297,114502,-1.01,0.43,-0.13,11.06,11402
17:55:52.311,114512,-1.04,0.48,-0.10,11.55,11403
17:55:52.311,114522,-1.06,0.58,-0.08,12.05,11404
17:55:52.313,114532,-1.06,0.58,-0.12,12.11,11405
17:55:52.328,114542,-1.10,0.52,-0.10,12.24,11406
17:55:52.331,114552,-1.13,0.55,-0.15,12.65,11407
17:55:52.332,114562,-1.12,0.63,-0.25,13.08,11408
17:55:52.335,114572,-1.16,0.63,-0.33,13.65,11409
17:55:52.344,114582,-1.21,0.70,-0.26,14.24,11410
17:55:52.351,114592,-1.25,0.89,-0.50,16.11,11411
17:55:52.365,114602,-1.20,0.96,-0.72,16.97,11412
17:55:52.403,114612,-1.14,0.89,-0.68,15.99,11413
17:55:52.404,114622,-1.08,0.71,-0.46,13.76,11414
17:55:52.405,114632,-1.11,0.53,-0.21,12.50,11415
17:55:52.411,114642,-1.21,0.37,0.19,12.84,11416
17:55:52.445,114652,-1.29,0.29,0.54,14.29,11417
17:55:52.448,114662,-1.25,0.17,0.79,14.87,11418
17:55:52.448,114672,-1.17,0.11,0.91,14.84,11419
17:55:52.449,114682,-1.29,0.07,1.00,16.33,11420
17:55:52.451,114692,-1.40,0.08,1.10,17.79,11421
17:55:52.486,114702,-1.09,0.23,1.05,15.33,11422
17:55:52.488,114712,-0.71,0.40,0.79,11.35,11423
17:55:52.490,114722,-0.60,0.50,0.60,9.86,11424
17:55:52.491,114732,-0.44,0.48,0.71,9.64,11425
17:55:52.527,114742,-0.37,0.71,0.72,10.77,11426
17:55:52.530,114752,-0.53,0.31,0.64,8.86,11427
17:55:52.530,114762,-0.51,0.31,0.69,9.14,11428
17:55:52.531,114772,-0.53,0.40,0.71,9.67,11429
17:55:52.573,114782,-0.47,0.41,0.69,9.31,11430
17:55:52.573,114792,-0.44,0.31,0.78,9.46,11431
17:55:52.573,114802,-0.36,0.30,0.72,8.58,11432
17:55:52.573,114812,-0.37,0.25,0.69,8.22,11433
17:55:52.598,114822,-0.38,0.21,0.68,8.11,11434
17:55:52.598,114832,-0.42,0.11,0.77,8.85,11435
17:55:52.600,114842,-0.37,0.16,0.68,7.93,11436
17:55:52.624,114852,-0.36,0.20,0.72,8.30,11437
17:55:52.625,114862,-0.31,0.26,0.73,8.31,11438
17:55:52.631,114872,-0.30,0.12,0.47,5.75,11439
17:55:52.645,114882,-0.26,0.43,0.66,8.32,11440
17:55:52.655,114892,-0.26,0.42,0.65,8.16,11441
17:55:52.664,114902,-0.29,0.44,0.62,8.16,11442
17:55:52.673,114912,-0.33,0.45,0.60,8.17,11443
17:55:52.680,114922,-0.37,0.46,0.59,8.36,11444
17:55:52.696,114932,-0.46,0.42,0.54,8.28,11445
17:55:52.702,114942,-0.51,0.38,0.54,8.41,11446
17:55:52.711,114952,-0.50,0.37,0.56,8.39,11447
17:55:52.720,114962,-0.58,0.37,0.58,9.04,11448
17:55:52.732,114972,-0.61,0.42,0.62,9.65,11449
17:55:52.742,114982,-0.64,0.46,0.61,9.94,11450
17:55:52.753,114992,-0.70,0.48,0.58,10.34,11451
17:55:52.762,115002,-0.73,0.47,0.52,10.08,11452
17:55:52.773,115012,-0.73,0.46,0.43,9.63,11453
17:55:52.783,115022,-0.77,0.43,0.36,9.53,11454
17:55:52.791,115032,-0.79,0.44,0.25,9.37,11455
17:55:52.800,115042,-0.81,0.40,0.24,9.34,11456
17:55:52.815,115052,-0.85,0.42,0.19,9.67,11457
17:55:52.827,115062,-0.86,0.42,0.17,9.67,11458
17:55:52.832,115072,-0.90,0.36,0.19,9.86,11459
17:55:52.844,115082,-0.92,0.28,0.07,9.68,11460
17:55:52.851,115092,-0.86,0.23,-0.12,8.95,11461
17:55:52.865,115102,-0.69,0.29,-0.33,8.19,11462
17:55:52.871,115112,-0.45,0.35,-0.58,8.14,11463
17:55:52.885,115122,-0.44,0.34,-0.65,8.59,11464
17:55:52.890,115132,-0.44,0.44,-0.43,7.58,11465
17:55:52.904,115142,-0.68,0.21,-0.10,7.18,11466
17:55:52.911,115152,-0.76,0.04,0.11,7.64,11467
17:55:52.921,115162,-0.80,0.03,0.25,8.39,11468
17:55:52.936,115172,-1.42,0.67,0.17,15.73,11469
17:55:52.940,115182,-2.13,1.92,-0.02,28.67,11470
17:55:52.952,115192,-2.04,0.96,-0.55,23.23,11471
17:55:52.963,115202,-0.66,0.48,-0.21,8.42,11472
17:55:52.979,115212,-0.99,0.50,-0.29,11.50,11473
17:55:52.980,115222,-1.18,0.50,0.19,13.01,11474
17:55:52.990,115232,-1.12,0.55,0.76,14.63,11475
17:55:53.008,115242,-0.69,0.88,0.79,13.67,11476
17:55:53.012,115252,-0.63,1.25,0.49,14.83,11477
17:55:53.023,115262,-0.47,1.07,0.22,11.85,11478
17:55:53.032,115272,-0.85,0.46,0.15,9.74,11479
17:55:53.040,115282,-1.15,-0.05,0.02,11.54,11480
17:55:53.057,115292,-1.25,-0.34,0.01,12.98,11481
17:55:53.062,115302,-1.24,-0.34,-0.02,12.82,11482
17:55:53.070,115312,-1.15,0.00,0.07,11.50,11483
17:55:53.081,115322,-1.04,0.32,0.04,10.85,11484
17:55:53.092,115332,-0.93,0.57,-0.02,10.93,11485
17:55:53.113,115342,-0.90,0.53,-0.02,10.41,11486
17:55:53.113,115352,-0.97,0.38,0.04,10.45,11487
17:55:53.150,115362,-1.04,0.32,0.04,10.91,11488
17:55:53.151,115372,-1.03,0.28,-0.01,10.64,11489
17:55:53.155,115382,-0.99,0.32,-0.07,10.39,11490
17:55:53.155,115392,-0.99,0.35,-0.12,10.53,11491
17:55:53.192,115402,-1.00,0.38,-0.14,10.83,11492
17:55:53.194,115412,-1.00,0.42,-0.17,11.02,11493
17:55:53.195,115422,-0.98,0.44,-0.19,10.90,11494
17:55:53.195,115432,-0.99,0.40,-0.18,10.80,11495
17:55:53.233,115442,-0.98,0.36,-0.14,10.58,11496
17:55:53.234,115452,-0.97,0.36,-0.08,10.33,11497
17:55:53.235,115462,-0.95,0.37,-0.06,10.20,11498
17:55:53.237,115472,-0.94,0.41,-0.03,10.22,11499
17:55:53.275,115482,-0.95,0.42,-0.00,10.36,11500
17:55:53.275,115492,-0.97,0.40,0.04,10.50,11501
17:55:53.279,115502,-0.97,0.40,0.08,10.58,11502
17:55:53.279,115512,-0.95,0.46,0.11,10.64,11503
17:55:53.280,115522,-0.89,0.46,0.12,10.14,11504
17:55:53.342,115532,-0.91,0.33,0.13,9.74,11505
17:55:53.351,115542,-0.98,0.44,0.19,10.95,11506
17:55:53.351,115552,-0.97,0.43,0.20,10.78,11507
17:55:53.351,115562,-0.99,0.39,0.23,10.86,11508
17:55:53.351,115572,-0.99,0.43,0.21,11.01,11509
17:55:53.352,115582,-1.00,0.39,0.18,10.84,11510
17:55:53.353,115592,-1.00,0.39,0.16,10.84,11511
17:55:53.361,115602,-0.99,0.41,0.14,10.79,11512
17:55:53.378,115612,-0.98,0.44,0.10,10.79,11513
17:55:53.380,115622,-0.98,0.46,0.06,10.81,11514
17:55:53.392,115632,-0.99,0.48,0.02,10.96,11515
17:55:53.403,115642,-1.01,0.50,0.02,11.22,11516
17:55:53.413,115652,-1.02,0.50,-0.00,11.34,11517
17:55:53.422,115662,-1.02,0.46,-0.04,11.19,11518
17:55:53.430,115672,-1.02,0.44,-0.07,11.14,11519
17:55:53.464,115682,-1.05,0.41,-0.07,11.33,11520
17:55:53.469,115692,-1.04,0.42,-0.09,11.31,11521
17:55:53.469,115702,-1.03,0.40,-0.12,11.12,11522
17:55:53.472,115712,-1.04,0.40,-0.16,11.27,11523
17:55:53.488,115722,-1.00,0.44,-0.19,11.06,11524
17:55:53.491,115732,-0.96,0.47,-0.19,10.88,11525
17:55:53.500,115742,-0.94,0.47,-0.19,10.70,11526
17:55:53.515,115752,-0.98,0.44,-0.18,10.90,11527
17:55:53.521,115762,-1.03,0.40,-0.17,11.14,11528
17:55:53.537,115772,-1.09,0.44,-0.11,11.76,11529
17:55:53.541,115782,-1.12,0.54,-0.07,12.45,11530
17:55:53.550,115792,-1.13,0.61,-0.07,12.83,11531
17:55:53.561,115802,-1.15,0.63,-0.12,13.14,11532
17:55:53.572,115812,-1.14,0.71,-0.15,13.44,11533
17:55:53.584,115822,-1.13,0.78,-0.19,13.84,11534
17:55:53.595,115832,-1.23,0.81,-0.43,15.38,11535
17:55:53.613,115842,-1.29,0.93,-0.64,17.14,11536
17:55:53.614,115852,-1.32,0.93,-0.76,17.83,11537
17:55:53.622,115862,-1.29,0.69,-0.57,15.71,11538
17:55:53.631,115872,-1.32,0.48,-0.34,14.44,11539
17:55:53.640,115882,-1.35,0.30,0.03,13.84,11540
17:55:53.659,115892,-1.37,0.20,0.54,14.85,11541
17:55:53.660,115902,-1.29,0.22,0.68,14.74,11542
17:55:53.676,115912,-1.23,0.16,0.86,15.12,11543
17:55:53.685,115922,-1.23,0.13,0.88,15.14,11544
17:55:53.690,115932,-1.21,0.13,1.02,15.85,11545
17:55:53.701,115942,-1.00,0.24,1.19,15.76,11546
17:55:53.711,115952,-0.71,0.44,0.91,12.34,11547
17:55:53.721,115962,-0.51,0.62,0.73,10.86,11548
17:55:53.733,115972,-0.31,0.78,0.67,10.79,11549
17:55:53.743,115982,-0.21,0.89,0.72,11.64,11550
17:55:53.754,115992,-0.60,0.37,0.59,9.15,11551
17:55:53.767,116002,-0.55,0.17,0.68,8.90,11552
17:55:53.773,116012,-0.58,0.17,0.71,9.35,11553
17:55:53.784,116022,-0.48,0.14,0.75,9.03,11554
17:55:53.790,116032,-0.45,0.31,0.78,9.55,11555
17:55:53.805,116042,-0.41,0.28,0.71,8.67,11556
17:55:53.814,116052,-0.39,0.24,0.69,8.34,11557
17:55:53.822,116062,-0.40,0.20,0.68,8.12,11558
17:55:53.835,116072,-0.38,0.20,0.67,7.94,11559
17:55:53.863,116082,-0.38,0.13,0.68,7.93,11560
17:55:53.864,116092,-0.37,0.13,0.70,8.07,11561
17:55:53.865,116102,-0.36,0.19,0.70,8.14,11562
17:55:53.905,116112,-0.35,0.28,0.70,8.31,11563
17:55:53.908,116122,-0.44,0.34,0.65,8.60,11564
17:55:53.908,116132,-0.34,0.41,0.63,8.17,11565
17:55:53.908,116142,-0.33,0.39,0.61,7.96,11566
17:55:53.911,116152,-0.37,0.40,0.63,8.30,11567
17:55:53.947,116162,-0.43,0.37,0.61,8.33,11568
17:55:53.947,116172,-0.48,0.34,0.59,8.39,11569
17:55:53.948,116182,-0.55,0.33,0.60,8.79,11570
17:55:53.951,116192,-0.60,0.32,0.64,9.31,11571
17:55:53.988,116202,-0.65,0.29,0.68,9.86,11572
17:55:53.988,116212,-0.63,0.36,0.68,9.94,11573
17:55:53.989,116222,-0.64,0.39,0.67,10.06,11574
17:55:53.990,116232,-0.63,0.43,0.58,9.60,11575
17:55:54.030,116242,-0.62,0.45,0.51,9.23,11576
17:55:54.030,116252,-0.63,0.47,0.48,9.21,11577
17:55:54.031,116262,-0.70,0.50,0.44,9.66,11578
17:55:54.031,116272,-0.78,0.55,0.37,10.24,11579
17:55:54.068,116282,-0.82,0.50,0.33,10.13,11580
17:55:54.070,116292,-0.81,0.37,0.28,9.36,11581
17:55:54.071,116302,-0.82,0.32,0.20,9.04,11582
17:55:54.072,116312,-0.89,0.33,0.16,9.65,11583
17:55:54.085,116322,-0.88,0.25,0.04,9.18,11584
17:55:54.090,116332,-0.84,0.20,-0.15,8.74,11585
17:55:54.101,116342,-0.63,0.24,-0.41,7.89,11586
17:55:54.114,116352,-0.53,0.17,-0.56,7.91,11587
17:55:54.124,116362,-0.34,0.44,-0.71,8.97,11588
17:55:54.130,116372,-0.50,0.39,-0.41,7.55,11589
17:55:54.141,116382,-0.66,0.23,-0.09,7.03,11590
17:55:54.160,116392,-0.70,0.12,0.15,7.31,11591
17:55:54.161,116402,-0.80,0.12,0.37,8.90,11592
17:55:54.171,116412,-1.98,1.16,-0.20,23.01,11593
17:55:54.185,116422,-2.13,1.64,-0.09,26.88,11594
17:55:54.194,116432,-1.58,0.71,-0.07,17.34,11595
17:55:54.201,116442,-0.64,0.92,-0.18,11.35,11596
17:55:54.210,116452,-1.16,0.69,0.00,13.51,11597
17:55:54.221,116462,-1.43,0.33,0.45,15.35,11598
17:55:54.236,116472,-0.78,0.62,1.05,14.46,11599
17:55:54.240,116482,-0.55,1.19,0.47,13.97,11600
17:55:54.251,116492,-0.52,1.26,0.30,13.92,11601
17:55:54.260,116502,-0.72,0.56,0.17,9.27,11602
17:55:54.278,116512,-1.01,0.21,0.04,10.37,11603
17:55:54.282,116522,-1.19,-0.20,-0.14,12.18,11604
17:55:54.290,116532,-1.30,-0.50,0.07,13.92,11605
17:55:54.301,116542,-1.10,-0.15,-0.00,11.11,11606
17:55:54.315,116552,-1.04,0.19,-0.01,10.53,11607
17:55:54.320,116562,-0.92,0.59,-0.08,10.90,11608
17:55:54.332,116572,-0.82,0.71,-0.14,10.99,11609
17:55:54.340,116582,-0.89,0.55,-0.08,10.49,11610
17:55:54.351,116592,-0.99,0.40,-0.01,10.71,11611
17:55:54.360,116602,-1.03,0.31,0.01,10.78,11612
17:55:54.373,116612,-1.00,0.29,-0.00,10.37,11613
17:55:54.387,116622,-0.97,0.32,-0.04,10.25,11614
17:55:54.390,116632,-0.96,0.40,-0.05,10.45,11615
17:55:54.402,116642,-0.97,0.44,-0.07,10.70,11616
17:55:54.410,116652,-0.97,0.44,-0.08,10.71,11617
17:55:54.424,116662,-1.01,0.37,-0.04,10.75,11618
17:55:54.432,116672,-1.03,0.29,-0.00,10.71,11619
17:55:54.442,116682,-1.02,0.28,0.04,10.61,11620
17:55:54.452,116692,-1.00,0.31,0.07,10.48,11621
17:55:54.461,116702,-0.95,0.37,0.09,10.27,11622
17:55:54.473,116712,-0.92,0.45,0.12,10.30,11623
17:55:54.485,116722,-0.90,0.49,0.13,10.37,11624
17:55:54.491,116732,-0.90,0.48,0.15,10.35,11625
17:55:54.501,116742,-0.93,0.46,0.14,10.46,11626
17:55:54.515,116752,-0.97,0.43,0.14,10.68,11627
17:55:54.520,116762,-0.96,0.41,0.16,10.57,11628
17:55:54.531,116772,-0.95,0.40,0.15,10.41,11629
17:55:54.540,116782,-0.92,0.40,0.20,10.22,11630
17:55:54.551,116792,-0.93,0.42,0.17,10.32,11631
17:55:54.570,116802,-0.96,0.42,0.18,10.67,11632
17:55:54.571,116812,-0.97,0.43,0.18,10.71,11633
17:55:54.586,116822,-0.96,0.43,0.18,10.65,11634
17:55:54.626,116832,-0.96,0.40,0.17,10.59,11635
17:55:54.627,116842,-0.96,0.41,0.16,10.58,11636
17:55:54.627,116852,-0.97,0.42,0.16,10.70,11637
17:55:54.632,116862,-0.98,0.43,0.11,10.82,11638
17:55:54.632,116872,-0.99,0.44,0.07,10.88,11639
17:55:54.666,116882,-0.99,0.45,0.03,10.92,11640
17:55:54.666,116892,-1.00,0.47,0.02,11.05,11641
17:55:54.668,116902,-0.99,0.47,-0.02,11.01,11642
17:55:54.670,116912,-1.01,0.46,-0.05,11.11,11643
17:55:54.708,116922,-1.04,0.44,-0.06,11.33,11644
17:55:54.711,116932,-1.04,0.45,-0.08,11.41,11645
17:55:54.711,116942,-1.03,0.41,-0.13,11.22,11646
17:55:54.718,116952,-1.05,0.39,-0.19,11.38,11647
17:55:54.745,116962,-1.06,0.39,-0.23,11.49,11648
17:55:54.747,116972,-1.05,0.41,-0.27,11.56,11649
17:55:54.750,116982,-1.01,0.42,-0.31,11.38,11650
17:55:54.752,116992,-0.99,0.40,-0.32,11.17,11651
17:55:54.787,117002,-1.02,0.40,-0.29,11.37,11652
17:55:54.787,117012,-1.08,0.54,-0.19,12.17,11653
17:55:54.788,117022,-1.07,0.67,-0.16,12.74,11654
17:55:54.791,117032,-1.07,0.68,-0.16,12.78,11655
17:55:54.829,117042,-1.06,0.57,-0.16,12.19,11656
17:55:54.829,117052,-1.08,0.50,-0.14,12.01,11657
17:55:54.829,117062,-1.12,0.47,-0.18,12.23,11658
17:55:54.830,117072,-1.21,0.46,-0.20,13.06,11659
17:55:54.846,117082,-1.25,0.59,-0.13,13.89,11660
17:55:54.853,117092,-1.27,0.80,-0.22,15.16,11661
17:55:54.863,117102,-1.22,0.94,-0.42,15.94,11662
17:55:54.870,117112,-1.16,0.94,-0.49,15.73,11663
17:55:54.891,117122,-1.04,0.80,-0.39,13.67,11664
17:55:54.892,117132,-1.00,0.62,-0.16,11.86,11665
17:55:54.908,117142,-0.96,0.51,0.10,10.87,11666
17:55:54.912,117152,-0.97,0.43,0.27,10.97,11667
17:55:54.920,117162,-0.98,0.29,0.61,11.89,11668
17:55:54.930,117172,-0.98,0.30,0.84,13.27,11669
17:55:54.944,117182,-1.02,0.31,0.94,14.22,11670
17:55:54.953,117192,-1.08,0.33,0.99,14.96,11671
17:55:54.962,117202,-1.01,0.34,0.99,14.53,11672
17:55:54.972,117212,-0.77,0.41,0.80,11.85,11673
17:55:54.983,117222,-0.59,0.50,0.66,10.16,11674
17:55:54.991,117232,-0.45,0.55,0.57,9.10,11675
17:55:55.009,117242,-0.50,0.40,0.59,8.70,11676
17:55:55.011,117252,-0.46,0.26,0.67,8.53,11677
17:55:55.020,117262,-0.50,0.28,0.53,7.82,11678
17:55:55.037,117272,-0.55,0.36,0.62,9.04,11679
17:55:55.041,117282,-0.56,0.32,0.65,9.18,11680
17:55:55.052,117292,-0.47,0.27,0.67,8.67,11681
17:55:55.064,117302,-0.45,0.27,0.66,8.42,11682
17:55:55.070,117312,-0.44,0.24,0.67,8.30,11683
17:55:55.080,117322,-0.45,0.23,0.68,8.50,11684
17:55:55.099,117332,-0.44,0.24,0.66,8.31,11685
17:55:55.100,117342,-0.44,0.25,0.64,8.21,11686
17:55:55.119,117352,-0.42,0.29,0.69,8.56,11687
17:55:55.122,117362,-0.42,0.34,0.75,9.25,11688
17:55:55.131,117372,-0.37,0.40,0.64,8.38,11689
17:55:55.143,117382,-0.38,0.42,0.61,8.32,11690
17:55:55.152,117392,-0.41,0.43,0.54,8.04,11691
17:55:55.167,117402,-0.47,0.34,0.52,7.79,11692
17:55:55.170,117412,-0.51,0.34,0.54,8.11,11693
17:55:55.184,117422,-0.58,0.30,0.57,8.66,11694
17:55:55.194,117432,-0.63,0.33,0.57,9.11,11695
17:55:55.204,117442,-0.62,0.36,0.54,8.99,11696
17:55:55.215,117452,-0.60,0.39,0.59,9.24,11697
17:55:55.221,117462,-0.56,0.43,0.57,9.04,11698
17:55:55.235,117472,-0.54,0.44,0.53,8.77,11699
17:55:55.241,117482,-0.54,0.45,0.53,8.78,11700
17:55:55.251,117492,-0.58,0.48,0.54,9.25,11701
17:55:55.262,117502,-0.64,0.51,0.48,9.44,11702
17:55:55.272,117512,-0.68,0.51,0.45,9.64,11703
17:55:55.289,117522,-0.75,0.49,0.45,10.03,11704
17:55:55.290,117532,-0.81,0.48,0.38,10.11,11705
17:55:55.305,117542,-0.82,0.46,0.27,9.77,11706
17:55:55.345,117552,-0.80,0.47,0.23,9.58,11707
17:55:55.345,117562,-0.81,0.49,0.18,9.62,11708
17:55:55.346,117572,-0.81,0.52,0.15,9.70,11709
17:55:55.348,117582,-0.75,0.43,0.08,8.70,11710
17:55:55.351,117592,-0.77,0.38,0.06,8.58,11711
17:55:55.384,117602,-0.82,0.31,0.03,8.80,11712
17:55:55.386,117612,-0.86,0.32,0.03,9.16,11713
17:55:55.387,117622,-0.87,0.35,0.02,9.37,11714
17:55:55.424,117632,-0.81,0.38,-0.07,8.98,11715
17:55:55.424,117642,-0.67,0.43,-0.20,8.24,11716
17:55:55.427,117652,-0.52,0.47,-0.27,7.55,11717
17:55:55.429,117662,-0.43,0.48,-0.32,7.15,11718
17:55:55.464,117672,-0.49,0.43,-0.27,7.04,11719
17:55:55.466,117682,-0.55,0.38,-0.13,6.82,11720
17:55:55.469,117692,-0.66,0.45,0.01,8.00,11721
17:55:55.469,117702,-1.31,0.97,-0.09,16.31,11722
17:55:55.471,117712,-1.91,1.65,-0.23,25.30,11723
17:55:55.506,117722,-1.71,0.81,-0.40,19.36,11724
17:55:55.511,117732,-1.03,0.51,0.01,11.48,11725
17:55:55.511,117742,-1.61,0.13,-0.02,16.14,11726
17:55:55.511,117752,-1.54,-0.29,0.23,15.83,11727
17:55:55.546,117762,-1.01,0.26,0.43,11.32,11728
17:55:55.548,117772,-0.55,0.91,0.52,11.87,11729
17:55:55.548,117782,-0.53,1.50,0.32,16.18,11730
17:55:55.552,117792,-0.40,1.34,0.11,14.04,11731
17:55:55.563,117802,-0.74,0.65,0.09,9.91,11732
17:55:55.576,117812,-0.95,0.20,-0.04,9.72,11733
17:55:55.584,117822,-1.15,-0.19,-0.03,11.65,11734
17:55:55.590,117832,-1.18,-0.22,0.06,12.03,11735
17:55:55.603,117842,-1.12,0.05,0.08,11.27,11736
17:55:55.613,117852,-1.00,0.41,0.08,10.84,11737
17:55:55.622,117862,-0.87,0.67,0.01,11.00,11738
17:55:55.632,117872,-0.80,0.66,-0.00,10.36,11739
17:55:55.647,117882,-0.90,0.51,0.03,10.35,11740
17:55:55.652,117892,-1.03,0.33,0.04,10.84,11741
17:55:55.661,117902,-1.08,0.26,0.03,11.09,11742
17:55:55.673,117912,-1.05,0.30,-0.02,10.94,11743
17:55:55.680,117922,-1.02,0.38,-0.10,10.95,11744
17:55:55.694,117932,-1.00,0.41,-0.15,10.89,11745
17:55:55.706,117942,-0.98,0.43,-0.19,10.89,11746
17:55:55.713,117952,-0.98,0.41,-0.20,10.77,11747
17:55:55.722,117962,-1.00,0.36,-0.20,10.85,11748
17:55:55.730,117972,-1.01,0.35,-0.17,10.80,11749
17:55:55.745,117982,-1.01,0.35,-0.14,10.75,11750
17:55:55.752,117992,-0.98,0.38,-0.08,10.54,11751
17:55:55.760,118002,-0.95,0.41,-0.06,10.37,11752
17:55:55.778,118012,-0.93,0.44,-0.02,10.30,11753
17:55:55.780,118022,-0.94,0.43,0.03,10.37,11754
17:55:55.794,118032,-0.95,0.41,0.07,10.38,11755
17:55:55.803,118042,-0.96,0.41,0.09,10.46,11756
17:55:55.814,118052,-0.95,0.43,0.13,10.48,11757
17:55:55.822,118062,-0.91,0.45,0.16,10.30,11758
17:55:55.837,118072,-0.93,0.50,0.20,10.81,11759
17:55:55.840,118082,-0.89,0.41,0.20,9.96,11760
17:55:55.851,118092,-0.89,0.34,0.19,9.73,11761
17:55:55.868,118102,-0.96,0.50,0.28,11.13,11762
17:55:55.872,118112,-0.95,0.49,0.26,11.04,11763
17:55:55.888,118122,-0.95,0.48,0.23,10.93,11764
17:55:55.890,118132,-0.95,0.42,0.18,10.54,11765
17:55:55.913,118142,-0.96,0.38,0.15,10.48,11766
17:55:55.917,118152,-0.96,0.42,0.14,10.55,11767
17:55:55.936,118162,-0.98,0.41,0.13,10.75,11768
17:55:55.939,118172,-0.98,0.45,0.11,10.85,11769
17:55:55.942,118182,-0.96,0.48,0.08,10.80,11770
17:55:55.952,118192,-0.96,0.51,0.06,10.91,11771
17:55:55.960,118202,-0.98,0.50,0.02,10.98,11772
17:55:55.973,118212,-1.00,0.45,-0.01,10.99,11773
17:55:55.984,118222,-1.02,0.42,-0.03,11.02,11774
17:55:55.993,118232,-1.06,0.40,-0.04,11.30,11775
17:55:56.024,118242,-1.06,0.43,-0.05,11.47,11776
17:55:56.025,118252,-1.04,0.42,-0.10,11.30,11777
17:55:56.027,118262,-1.03,0.42,-0.13,11.24,11778
17:55:56.032,118272,-1.02,0.43,-0.15,11.20,11779
17:55:56.066,118282,-0.98,0.45,-0.18,10.99,11780
17:55:56.068,118292,-0.97,0.45,-0.20,10.87,11781
17:55:56.073,118302,-0.95,0.47,-0.26,10.89,11782
17:55:56.073,118312,-0.97,0.46,-0.30,11.19,11783
17:55:56.107,118322,-1.05,0.48,-0.32,11.98,11784
17:55:56.107,118332,-1.12,0.55,-0.30,12.80,11785
17:55:56.109,118342,-1.14,0.63,-0.26,13.27,11786
17:55:56.112,118352,-1.15,0.60,-0.25,13.18,11787
17:55:56.151,118362,-1.16,0.57,-0.22,13.09,11788
17:55:56.151,118372,-1.21,0.59,-0.20,13.64,11789
17:55:56.152,118382,-1.24,0.74,-0.09,14.44,11790
17:55:56.152,118392,-1.23,0.94,-0.23,15.68,11791
17:55:56.187,118402,-1.19,0.94,-0.42,15.76,11792
17:55:56.190,118412,-1.18,0.84,-0.48,15.23,11793
17:55:56.190,118422,-1.11,0.64,-0.27,13.12,11794
17:55:56.191,118432,-1.10,0.45,-0.01,11.87,11795
17:55:56.228,118442,-1.15,0.25,0.38,12.35,11796
17:55:56.228,118452,-1.11,0.29,0.41,12.13,11797
17:55:56.228,118462,-1.07,0.15,0.82,13.57,11798
17:55:56.230,118472,-1.05,0.22,0.86,13.75,11799
17:55:56.266,118482,-1.09,0.23,0.89,14.24,11800
17:55:56.266,118492,-1.07,0.23,1.02,14.95,11801
17:55:56.266,118502,-0.85,0.30,0.99,13.45,11802
17:55:56.271,118512,-0.64,0.45,0.70,10.50,11803
17:55:56.282,118522,-0.51,0.56,0.61,9.76,11804
17:55:56.295,118532,-0.36,0.66,0.61,9.66,11805
17:55:56.302,118542,-0.44,0.45,0.69,9.36,11806
17:55:56.311,118552,-0.47,0.26,0.66,8.54,11807
17:55:56.331,118562,-0.52,0.25,0.67,8.83,11808
17:55:56.332,118572,-0.56,0.34,0.68,9.44,11809
17:55:56.342,118582,-0.53,0.26,0.70,9.13,11810
17:55:56.352,118592,-0.47,0.23,0.70,8.73,11811
17:55:56.369,118602,-0.45,0.21,0.66,8.24,11812
17:55:56.371,118612,-0.47,0.20,0.66,8.35,11813
17:55:56.381,118622,-0.47,0.19,0.69,8.53,11814
17:55:56.391,118632,-0.44,0.19,0.66,8.20,11815
17:55:56.401,118642,-0.43,0.23,0.68,8.37,11816
17:55:56.411,118652,-0.39,0.28,0.70,8.48,11817
17:55:56.420,118662,-0.36,0.34,0.70,8.59,11818
17:55:56.431,118672,-0.36,0.39,0.70,8.80,11819
17:55:56.440,118682,-0.36,0.43,0.64,8.54,11820
17:55:56.454,118692,-0.40,0.41,0.58,8.15,11821
17:55:56.466,118702,-0.43,0.35,0.55,7.82,11822
17:55:56.471,118712,-0.48,0.30,0.55,7.91,11823
17:55:56.480,118722,-0.55,0.29,0.54,8.20,11824
17:55:56.492,118732,-0.59,0.29,0.57,8.70,11825
17:55:56.503,118742,-0.60,0.31,0.58,8.91,11826
17:55:56.512,118752,-0.59,0.34,0.60,9.05,11827
17:55:56.520,118762,-0.55,0.38,0.55,8.64,11828
17:55:56.530,118772,-0.54,0.43,0.56,8.83,11829
17:55:56.551,118782,-0.56,0.45,0.54,8.98,11830
17:55:56.551,118792,-0.61,0.45,0.51,9.17,11831
17:55:56.562,118802,-0.67,0.46,0.55,9.84,11832
17:55:56.578,118812,-0.72,0.49,0.52,10.16,11833
17:55:56.584,118822,-0.79,0.49,0.46,10.37,11834
17:55:56.591,118832,-0.82,0.47,0.36,10.13,11835
17:55:56.606,118842,-0.81,0.44,0.33,9.82,11836
17:55:56.612,118852,-0.85,0.43,0.29,9.95,11837
17:55:56.621,118862,-0.89,0.46,0.22,10.27,11838
17:55:56.632,118872,-0.86,0.44,0.17,9.81,11839
17:55:56.648,118882,-0.86,0.39,0.07,9.43,11840
17:55:56.650,118892,-0.87,0.37,0.05,9.49,11841
17:55:56.662,118902,-0.88,0.33,-0.03,9.42,11842
17:55:56.674,118912,-0.85,0.26,-0.18,9.06,11843
17:55:56.681,118922,-0.72,0.24,-0.33,8.28,11844
17:55:56.691,118932,-0.54,0.32,-0.57,8.45,11845
17:55:56.705,118942,-0.45,0.36,-0.65,8.69,11846
17:55:56.712,118952,-0.56,0.31,-0.41,7.61,11847
17:55:56.726,118962,-0.70,0.20,-0.12,7.40,11848
17:55:56.730,118972,-0.75,0.17,0.09,7.76,11849
17:55:56.741,118982,-0.84,0.27,0.20,9.07,11850
17:55:56.793,118992,-1.71,1.01,-0.05,19.87,11851
17:55:56.794,119002,-2.06,1.92,-0.27,28.24,11852
17:55:56.794,119012,-1.80,0.79,-0.35,19.92,11853
17:55:56.795,119022,-0.50,0.62,-0.38,8.85,11854
17:55:56.798,119032,-0.76,0.85,-0.31,11.83,11855
17:55:56.834,119042,-0.95,0.79,0.08,12.36,11856
17:55:56.834,119052,-1.10,0.38,0.48,12.55,11857
17:55:56.836,119062,-1.05,0.44,0.67,13.18,11858
17:55:56.837,119072,-0.82,0.69,0.40,11.43,11859
17:55:56.875,119082,-0.80,0.78,0.24,11.40,11860
17:55:56.876,119092,-0.86,0.57,0.07,10.34,11861
17:55:56.876,119102,-0.93,0.29,-0.12,9.84,11862
17:55:56.878,119112,-0.93,0.01,-0.11,9.40,11863
17:55:56.880,119122,-1.02,0.00,-0.06,10.21,11864
17:55:56.917,119132,-1.12,0.06,-0.03,11.23,11865
17:55:56.917,119142,-1.10,0.27,-0.03,11.34,11866
17:55:56.919,119152,-0.97,0.48,-0.01,10.86,11867
17:55:56.923,119162,-0.89,0.53,-0.01,10.39,11868
17:55:56.954,119172,-0.94,0.47,0.04,10.52,11869
17:55:56.954,119182,-1.00,0.36,0.05,10.67,11870
17:55:56.955,119192,-1.04,0.28,0.05,10.73,11871
17:55:56.982,119202,-1.02,0.29,0.01,10.61,11872
17:55:56.982,119212,-1.04,0.30,0.02,10.87,11873
17:55:56.984,119222,-1.03,0.32,0.00,10.78,11874
17:55:56.991,119232,-1.03,0.40,-0.00,11.07,11875
17:55:57.001,119242,-1.00,0.36,-0.02,10.66,11876
17:55:57.012,119252,-1.03,0.31,-0.02,10.74,11877
17:55:57.029,119262,-1.03,0.29,-0.01,10.73,11878
17:55:57.030,119272,-1.02,0.30,0.01,10.64,11879
17:55:57.041,119282,-0.99,0.36,0.04,10.53,11880
17:55:57.051,119292,-0.94,0.42,0.06,10.34,11881
17:55:57.069,119302,-0.91,0.46,0.08,10.23,11882
17:55:57.072,119312,-0.90,0.45,0.05,10.06,11883
17:55:57.087,119322,-0.91,0.42,0.03,10.05,11884
17:55:57.091,119332,-0.94,0.41,0.04,10.23,11885
17:55:57.105,119342,-0.95,0.41,0.05,10.33,11886
17:55:57.111,119352,-0.98,0.40,0.06,10.61,11887
17:55:57.122,119362,-0.98,0.42,0.10,10.68,11888
17:55:57.130,119372,-0.93,0.37,0.11,10.03,11889
17:55:57.142,119382,-0.95,0.40,0.14,10.39,11890
17:55:57.156,119392,-0.94,0.38,0.16,10.29,11891
17:55:57.162,119402,-0.98,0.39,0.17,10.68,11892
17:55:57.174,119412,-0.96,0.41,0.16,10.53,11893
17:55:57.180,119422,-0.97,0.38,0.15,10.52,11894
17:55:57.191,119432,-0.98,0.41,0.13,10.70,11895
17:55:57.232,119442,-1.00,0.41,0.13,10.93,11896
17:55:57.233,119452,-0.99,0.40,0.10,10.67,11897
17:55:57.234,119462,-0.98,0.41,0.08,10.63,11898
17:55:57.236,119472,-0.96,0.43,0.06,10.57,11899
17:55:57.242,119482,-0.96,0.46,0.04,10.65,11900
17:55:57.258,119492,-1.00,0.47,0.02,11.01,11901
17:55:57.261,119502,-1.03,0.45,0.02,11.26,11902
17:55:57.270,119512,-1.04,0.47,0.01,11.36,11903
17:55:57.304,119522,-1.02,0.47,-0.00,11.17,11904
17:55:57.313,119532,-1.02,0.44,-0.02,11.07,11905
17:55:57.314,119542,-1.07,0.41,-0.03,11.42,11906
17:55:57.315,119552,-1.07,0.39,-0.05,11.39,11907
17:55:57.320,119562,-1.06,0.39,-0.08,11.34,11908
17:55:57.332,119572,-1.04,0.45,-0.11,11.38,11909
17:55:57.348,119582,-1.01,0.48,-0.15,11.30,11910
17:55:57.351,119592,-0.98,0.49,-0.18,11.15,11911
17:55:57.361,119602,-0.99,0.46,-0.19,11.13,11912
17:55:57.372,119612,-1.03,0.45,-0.22,11.41,11913
17:55:57.382,119622,-1.10,0.50,-0.25,12.32,11914
17:55:57.392,119632,-1.15,0.51,-0.24,12.80,11915
17:55:57.400,119642,-1.17,0.51,-0.30,13.07,11916
17:55:57.417,119652,-1.18,0.52,-0.28,13.14,11917
17:55:57.421,119662,-1.13,0.61,-0.30,13.21,11918
17:55:57.433,119672,-1.16,0.67,-0.31,13.80,11919
17:55:57.441,119682,-1.19,0.74,-0.15,14.08,11920
17:55:57.451,119692,-1.21,0.87,-0.24,15.07,11921
17:55:57.462,119702,-1.19,0.92,-0.43,15.68,11922
17:55:57.471,119712,-1.22,0.83,-0.50,15.54,11923
17:55:57.485,119722,-1.16,0.61,-0.31,13.40,11924
17:55:57.500,119732,-1.13,0.44,-0.07,12.21,11925
17:55:57.500,119742,-1.16,0.35,0.18,12.23,11926
17:55:57.514,119752,-1.17,0.33,0.30,12.48,11927
17:55:57.521,119762,-1.11,0.21,0.73,13.45,11928
17:55:57.531,119772,-1.01,0.12,0.91,13.63,11929
17:55:57.541,119782,-1.05,0.16,0.85,13.60,11930
17:55:57.592,119792,-1.10,0.17,1.05,15.32,11931
17:55:57.592,119802,-0.92,0.29,1.07,14.45,11932
17:55:57.595,119812,-0.64,0.44,0.76,10.89,11933
17:55:57.597,119822,-0.49,0.58,0.71,10.43,11934
17:55:57.598,119832,-0.36,0.62,0.64,9.62,11935
17:55:57.633,119842,-0.45,0.57,0.63,9.58,11936
17:55:57.634,119852,-0.49,0.24,0.65,8.48,11937
17:55:57.635,119862,-0.51,0.24,0.66,8.66,11938
17:55:57.636,119872,-0.60,0.26,0.63,9.02,11939
17:55:57.675,119882,-0.60,0.21,0.69,9.42,11940
17:55:57.675,119892,-0.56,0.16,0.69,9.02,11941
17:55:57.676,119902,-0.51,0.16,0.69,8.72,11942
17:55:57.678,119912,-0.49,0.16,0.65,8.32,11943
17:55:57.681,119922,-0.48,0.14,0.73,8.87,11944
17:55:57.715,119932,-0.45,0.16,0.67,8.20,11945
17:55:57.716,119942,-0.42,0.19,0.66,8.07,11946
17:55:57.722,119952,-0.40,0.27,0.69,8.42,11947
17:55:57.722,119962,-0.36,0.32,0.69,8.42,11948
17:55:57.754,119972,-0.34,0.38,0.67,8.45,11949
17:55:57.754,119982,-0.35,0.40,0.62,8.15,11950
17:55:57.755,119992,-0.38,0.38,0.60,8.05,11951
17:55:57.791,120002,-0.41,0.35,0.59,7.98,11952
17:55:57.792,120012,-0.46,0.32,0.58,8.08,11953
17:55:57.793,120022,-0.51,0.30,0.59,8.36,11954
17:55:57.794,120032,-0.54,0.30,0.59,8.58,11955
17:55:57.800,120042,-0.56,0.32,0.60,8.84,11956
17:55:57.810,120052,-0.52,0.35,0.61,8.75,11957
17:55:57.821,120062,-0.55,0.41,0.62,9.26,11958
17:55:57.837,120072,-0.53,0.43,0.60,9.04,11959
17:55:57.841,120082,-0.55,0.45,0.56,9.02,11960
17:55:57.860,120092,-0.59,0.47,0.55,9.36,11961
17:55:57.860,120102,-0.67,0.47,0.56,9.93,11962
17:55:57.871,120112,-0.77,0.48,0.53,10.47,11963
17:55:57.881,120122,-0.83,0.44,0.45,10.41,11964
17:55:57.898,120132,-0.85,0.41,0.34,10.04,11965
17:55:57.901,120142,-0.87,0.39,0.29,9.97,11966
17:55:57.920,120152,-0.85,0.39,0.25,9.67,11967
17:55:57.921,120162,-0.85,0.40,0.18,9.54,11968
17:55:57.932,120172,-0.88,0.37,0.11,9.64,11969
17:55:57.941,120182,-0.88,0.34,0.08,9.50,11970
17:55:57.951,120192,-0.89,0.29,0.02,9.39,11971
17:55:57.960,120202,-0.84,0.26,-0.13,8.90,11972
17:55:57.975,120212,-0.73,0.24,-0.30,8.26,11973
17:55:57.980,120222,-0.57,0.30,-0.50,8.12,11974
17:55:57.990,120232,-0.38,0.45,-0.73,9.39,11975
17:55:58.000,120242,-0.47,0.51,-0.58,9.04,11976
17:55:58.011,120252,-0.69,0.33,-0.23,7.98,11977
17:55:58.023,120262,-0.82,0.13,0.03,8.32,11978
17:55:58.031,120272,-0.86,0.04,0.20,8.90,11979
17:55:58.041,120282,-0.96,0.19,0.28,10.22,11980
17:55:58.050,120292,-1.95,1.34,-0.23,23.78,11981
17:55:58.062,120302,-1.98,2.00,-0.04,28.14,11982
17:55:58.072,120312,-1.40,1.08,-0.35,18.01,11983
17:55:58.087,120322,-0.46,0.76,-0.27,9.34,11984
17:55:58.094,120332,-0.89,0.61,-0.15,10.92,11985
17:55:58.103,120342,-1.20,0.55,0.21,13.33,11986
17:55:58.113,120352,-1.16,0.50,0.61,14.02,11987
17:55:58.121,120362,-0.97,0.58,0.70,13.25,11988
17:55:58.134,120372,-0.78,0.83,0.40,12.06,11989
17:55:58.140,120382,-0.76,0.83,0.15,11.39,11990
17:55:58.151,120392,-0.82,0.52,-0.12,9.81,11991
17:55:58.161,120402,-0.89,0.14,-0.25,9.38,11992
17:55:58.171,120412,-1.07,-0.17,-0.08,10.84,11993
17:55:58.182,120422,-1.17,-0.26,-0.01,12.04,11994
17:55:58.199,120432,-1.14,0.19,-0.13,11.60,11995
17:55:58.201,120442,-1.05,0.45,-0.06,11.47,11996
17:55:58.220,120452,-0.90,0.50,-0.03,10.31,11997
17:55:58.224,120462,-0.91,0.46,0.01,10.18,11998
17:55:58.233,120472,-1.03,0.35,0.08,10.93,11999
17:55:58.249,120482,-1.05,0.31,0.08,10.93,12000
17:55:58.251,120492,-1.02,0.30,0.04,10.64,12001
17:55:58.267,120502,-0.99,0.32,0.02,10.43,12002
17:55:58.272,120512,-1.01,0.35,-0.01,10.67,12003
17:55:58.312,120522,-1.02,0.30,-0.01,10.60,12004
17:55:58.312,120532,-1.00,0.34,-0.05,10.62,12005
17:55:58.315,120542,-1.04,0.35,-0.03,10.93,12006
17:55:58.315,120552,-1.01,0.38,-0.01,10.76,12007
17:55:58.354,120562,-0.99,0.39,0.02,10.67,12008
17:55:58.354,120572,-0.99,0.39,0.05,10.62,12009
17:55:58.355,120582,-0.97,0.41,0.08,10.56,12010
17:55:58.356,120592,-0.96,0.43,0.11,10.53,12011
17:55:58.396,120602,-0.94,0.43,0.13,10.48,12012
17:55:58.397,120612,-0.94,0.44,0.13,10.47,12013
17:55:58.397,120622,-0.95,0.40,0.13,10.37,12014
17:55:58.398,120632,-0.98,0.38,0.13,10.61,12015
17:55:58.401,120642,-0.99,0.37,0.13,10.69,12016
17:55:58.437,120652,-0.97,0.40,0.14,10.60,12017
17:55:58.438,120662,-0.93,0.41,0.13,10.25,12018
17:55:58.440,120672,-0.88,0.40,0.14,9.79,12019
17:55:58.440,120682,-0.88,0.34,0.08,9.44,12020
17:55:58.480,120692,-0.92,0.48,0.13,10.48,12021
17:55:58.480,120702,-0.97,0.47,0.11,10.88,12022
17:55:58.480,120712,-0.95,0.44,0.08,10.46,12023
17:55:58.482,120722,-0.94,0.44,0.07,10.40,12024
17:55:58.515,120732,-0.94,0.41,0.07,10.26,12025
17:55:58.516,120742,-0.95,0.43,0.08,10.46,12026
17:55:58.519,120752,-0.96,0.43,0.09,10.56,12027
17:55:58.534,120762,-0.94,0.41,0.09,10.33,12028
17:55:58.535,120772,-0.93,0.42,0.11,10.28,12029
17:55:58.543,120782,-0.94,0.42,0.10,10.33,12030
17:55:58.552,120792,-0.95,0.43,0.08,10.48,12031
17:55:58.584,120802,-0.98,0.42,0.08,10.70,12032
17:55:58.585,120812,-0.98,0.41,0.05,10.64,12033
17:55:58.587,120822,-0.98,0.40,0.02,10.57,12034
17:55:58.592,120832,-0.98,0.40,0.00,10.55,12035
17:55:58.604,120842,-1.02,0.40,-0.01,10.90,12036
17:55:58.612,120852,-1.03,0.42,-0.04,11.12,12037
17:55:58.622,120862,-1.01,0.43,-0.06,10.99,12038
17:55:58.631,120872,-0.98,0.46,-0.08,10.87,12039
17:55:58.647,120882,-0.95,0.47,-0.10,10.63,12040
17:55:58.651,120892,-0.92,0.46,-0.13,10.42,12041
17:55:58.664,120902,-0.92,0.44,-0.16,10.31,12042
17:55:58.673,120912,-0.94,0.41,-0.14,10.38,12043
17:55:58.683,120922,-1.03,0.43,-0.12,11.23,12044
17:55:58.693,120932,-1.09,0.50,-0.11,12.02,12045
17:55:58.705,120942,-1.07,0.57,-0.12,12.20,12046
17:55:58.713,120952,-1.08,0.58,-0.12,12.33,12047
17:55:58.720,120962,-1.12,0.56,-0.14,12.63,12048
17:55:58.735,120972,-1.14,0.59,-0.19,12.95,12049
17:55:58.741,120982,-1.12,0.63,-0.25,13.12,12050
17:55:58.757,120992,-1.14,0.63,-0.29,13.38,12051
17:55:58.760,121002,-1.25,0.69,-0.30,14.54,12052
17:55:58.797,121012,-1.29,0.81,-0.45,15.90,12053
17:55:58.799,121022,-1.29,0.90,-0.61,16.87,12054
17:55:58.799,121032,-1.31,0.79,-0.65,16.64,12055
17:55:58.800,121042,-1.29,0.53,-0.38,14.49,12056
17:55:58.811,121052,-1.33,0.38,-0.15,13.93,12057
17:55:58.821,121062,-1.35,0.28,0.15,13.92,12058
17:55:58.833,121072,-1.55,0.16,0.51,16.35,12059
17:55:58.843,121082,-1.42,0.26,0.66,15.85,12060
17:55:58.856,121092,-1.29,0.02,0.86,15.45,12061
17:55:58.861,121102,-1.07,-0.06,0.82,13.54,12062
17:55:58.873,121112,-1.05,-0.12,1.15,15.64,12063
17:55:58.881,121122,-0.96,0.12,1.32,16.36,12064
17:55:58.896,121132,-0.67,0.37,1.01,12.73,12065
17:55:58.902,121142,-0.53,0.39,0.86,10.80,12066
17:55:58.911,121152,-0.60,0.84,0.50,11.49,12067
17:55:58.927,121162,-0.33,0.95,0.25,10.38,12068
17:55:58.932,121172,-0.47,0.49,0.70,9.75,12069
17:55:58.940,121182,-0.59,0.13,0.60,8.55,12070
17:55:58.993,121192,-0.59,0.08,0.72,9.32,12071
17:55:58.993,121202,-0.58,0.28,0.66,9.24,12072
17:55:58.994,121212,-0.51,0.32,0.78,9.88,12073
17:55:58.995,121222,-0.43,0.28,0.76,9.19,12074
17:55:58.997,121232,-0.39,0.25,0.69,8.28,12075
17:55:59.028,121242,-0.38,0.22,0.67,8.01,12076
17:55:59.029,121252,-0.37,0.16,0.71,8.16,12077
17:55:59.032,121262,-0.34,0.13,0.74,8.24,12078
17:55:59.032,121272,-0.33,0.16,0.73,8.14,12079
17:55:59.062,121282,-0.31,0.24,0.75,8.50,12080
17:55:59.063,121292,-0.30,0.31,0.70,8.24,12081
17:55:59.065,121302,-0.29,0.35,0.63,7.76,12082
17:55:59.102,121312,-0.31,0.36,0.63,7.87,12083
17:55:59.102,121322,-0.34,0.38,0.60,7.89,12084
17:55:59.105,121332,-0.39,0.39,0.60,8.13,12085
17:55:59.106,121342,-0.43,0.39,0.65,8.72,12086
17:55:59.144,121352,-0.55,0.43,0.64,9.48,12087
17:55:59.144,121362,-0.53,0.42,0.65,9.41,12088
17:55:59.146,121372,-0.58,0.38,0.66,9.60,12089
17:55:59.147,121382,-0.61,0.30,0.76,10.24,12090
17:55:59.176,121392,-0.64,0.40,0.64,9.88,12091
17:55:59.177,121402,-0.67,0.44,0.62,10.13,12092
17:55:59.177,121412,-0.66,0.46,0.55,9.78,12093
17:55:59.182,121422,-0.65,0.46,0.43,9.02,12094
17:55:59.198,121432,-0.71,0.49,0.42,9.56,12095
17:55:59.202,121442,-0.76,0.47,0.38,9.72,12096
17:55:59.211,121452,-0.80,0.36,0.26,9.18,12097
17:55:59.220,121462,-0.87,0.31,0.26,9.63,12098
17:55:59.238,121472,-0.95,0.22,0.21,10.02,12099
17:55:59.240,121482,-1.01,0.18,0.15,10.39,12100
17:55:59.251,121492,-0.99,0.09,0.02,9.95,12101
17:55:59.268,121502,-0.85,0.09,-0.16,8.67,12102
17:55:59.271,121512,-0.59,0.26,-0.39,7.54,12103
17:55:59.282,121522,-0.36,0.38,-0.67,8.48,12104
17:55:59.292,121532,-0.29,0.51,-0.65,8.74,12105
17:55:59.302,121542,-0.51,0.42,-0.35,7.44,12106
17:55:59.319,121552,-0.67,0.23,-0.03,7.05,12107
17:55:59.320,121562,-0.75,0.14,0.19,7.84,12108
17:55:59.330,121572,-0.85,0.27,0.29,9.39,12109
17:55:59.341,121582,-1.96,1.36,-0.09,23.91,12110
17:55:59.350,121592,-2.13,1.88,-0.27,28.53,12111
17:55:59.360,121602,-1.53,0.82,-0.38,17.80,12112
17:55:59.374,121612,-1.02,0.71,-0.25,12.68,12113
17:55:59.384,121622,-1.42,0.41,-0.11,14.79,12114
17:55:59.393,121632,-1.38,0.16,0.12,13.97,12115
17:55:59.402,121642,-0.99,0.17,0.46,11.06,12116
17:55:59.412,121652,-0.70,0.58,0.49,10.30,12117
17:55:59.429,121662,-0.65,1.08,0.32,13.04,12118
17:55:59.431,121672,-0.69,1.06,0.14,12.70,12119
17:55:59.441,121682,-0.85,0.59,0.05,10.40,12120
17:55:59.451,121692,-0.90,0.26,0.03,9.40,12121
17:55:59.460,121702,-0.99,-0.04,-0.11,9.92,12122
17:55:59.477,121712,-0.99,-0.02,-0.04,9.90,12123
17:55:59.481,121722,-1.04,0.19,-0.12,10.64,12124
17:55:59.495,121732,-1.01,0.52,-0.13,11.46,12125
17:55:59.503,121742,-0.91,0.61,-0.10,10.96,12126
17:55:59.513,121752,-0.90,0.49,-0.01,10.23,12127
17:55:59.521,121762,-0.97,0.37,0.09,10.44,12128
17:55:59.533,121772,-1.04,0.26,0.18,10.91,12129
17:55:59.541,121782,-1.07,0.20,0.21,11.05,12130
17:55:59.551,121792,-1.06,0.23,0.21,11.04,12131
17:55:59.562,121802,-1.05,0.33,0.19,11.14,12132
17:55:59.572,121812,-1.00,0.44,0.13,11.02,12133
17:55:59.581,121822,-0.95,0.45,0.09,10.56,12134
17:55:59.595,121832,-0.99,0.42,0.07,10.74,12135
17:55:59.600,121842,-0.98,0.40,0.00,10.61,12136
17:55:59.616,121852,-1.00,0.37,-0.02,10.67,12137
17:55:59.625,121862,-0.98,0.36,-0.03,10.46,12138
17:55:59.630,121872,-0.97,0.37,-0.07,10.39,12139
17:55:59.642,121882,-0.96,0.38,-0.08,10.36,12140
17:55:59.653,121892,-0.96,0.39,-0.07,10.37,12141
17:55:59.662,121902,-0.95,0.43,-0.06,10.49,12142
17:55:59.670,121912,-0.95,0.45,-0.05,10.54,12143
17:55:59.723,121922,-0.95,0.44,-0.02,10.45,12144
17:55:59.724,121932,-0.94,0.44,-0.01,10.37,12145
17:55:59.725,121942,-0.93,0.47,0.01,10.40,12146
17:55:59.726,121952,-0.91,0.53,0.07,10.58,12147
17:55:59.728,121962,-0.94,0.51,0.02,10.67,12148
17:55:59.764,121972,-0.89,0.47,0.08,10.13,12149
17:55:59.764,121982,-0.96,0.36,0.12,10.32,12150
17:55:59.767,121992,-0.93,0.40,0.12,10.17,12151
17:55:59.769,122002,-0.99,0.45,0.14,10.96,12152
17:55:59.854,122012,-0.99,0.46,0.14,11.05,12153
17:55:59.854,122022,-0.95,0.42,0.09,10.43,12154
17:55:59.855,122032,-0.95,0.40,0.07,10.31,12155
17:55:59.856,122042,-0.94,0.44,0.06,10.38,12156
17:55:59.858,122052,-0.93,0.44,0.05,10.33,12157
17:55:59.860,122062,-0.95,0.45,0.06,10.52,12158
17:55:59.860,122072,-0.96,0.46,0.07,10.70,12159
17:55:59.860,122082,-0.95,0.45,0.11,10.56,12160
17:55:59.860,122092,-0.95,0.46,0.11,10.60,12161
17:55:59.897,122102,-0.96,0.49,0.10,10.87,12162
17:55:59.897,122112,-0.98,0.50,0.08,11.02,12163
17:55:59.897,122122,-0.98,0.50,0.05,11.05,12164
17:55:59.898,122132,-0.99,0.47,0.01,10.93,12165
17:55:59.901,122142,-1.01,0.43,0.00,10.95,12166
17:55:59.924,122152,-1.04,0.42,-0.03,11.24,12167
17:55:59.926,122162,-1.02,0.41,-0.06,10.99,12168
17:55:59.930,122172,-1.01,0.43,-0.07,11.01,12169
17:55:59.942,122182,-0.98,0.44,-0.08,10.81,12170
17:55:59.951,122192,-0.96,0.46,-0.06,10.66,12171
17:55:59.967,122202,-0.94,0.47,-0.07,10.58,12172
17:55:59.971,122212,-0.94,0.45,-0.05,10.44,12173
17:55:59.987,122222,-0.96,0.43,-0.05,10.48,12174
17:55:59.991,122232,-1.02,0.42,-0.04,11.00,12175
17:56:00.004,122242,-1.08,0.48,-0.05,11.82,12176
17:56:00.010,122252,-1.09,0.55,-0.09,12.22,12177
17:56:00.020,122262,-1.08,0.56,-0.13,12.23,12178
17:56:00.030,122272,-1.12,0.53,-0.15,12.45,12179
17:56:00.041,122282,-1.13,0.53,-0.19,12.63,12180
17:56:00.051,122292,-1.13,0.59,-0.26,12.98,12181
17:56:00.061,122302,-1.12,0.60,-0.31,13.09,12182
17:56:00.094,122312,-1.16,0.59,-0.29,13.37,12183
17:56:00.095,122322,-1.24,0.67,-0.36,14.52,12184
17:56:00.096,122332,-1.25,0.80,-0.56,15.79,12185
17:56:00.101,122342,-1.26,0.82,-0.66,16.42,12186
17:56:00.112,122352,-1.23,0.66,-0.63,15.34,12187
17:56:00.121,122362,-1.26,0.47,-0.47,14.23,12188
17:56:00.131,122372,-1.33,0.31,-0.19,13.75,12189
17:56:00.147,122382,-1.38,0.26,0.20,14.18,12190
17:56:00.152,122392,-1.43,0.22,0.44,15.13,12191
17:56:00.165,122402,-1.39,0.13,0.69,15.58,12192
17:56:00.170,122412,-1.31,-0.03,0.80,15.35,12193
17:56:00.182,122422,-1.17,-0.06,0.90,14.73,12194
17:56:00.192,122432,-1.17,-0.00,1.21,16.88,12195
17:56:00.209,122442,-0.90,0.28,1.10,14.49,12196
17:56:00.210,122452,-0.64,0.27,0.98,12.01,12197
17:56:00.226,122462,-0.49,0.60,0.55,9.48,12198
17:56:00.230,122472,-0.57,0.99,0.34,11.93,12199
17:56:00.240,122482,-0.49,0.57,0.85,11.38,12200
17:56:00.253,122492,-0.58,0.31,0.73,9.78,12201
17:56:00.260,122502,-0.55,0.17,0.77,9.64,12202
17:56:00.278,122512,-0.61,0.15,0.77,9.99,12203
17:56:00.280,122522,-0.52,0.29,0.70,9.21,12204
17:56:00.298,122532,-0.37,0.42,0.66,8.59,12205
17:56:00.301,122542,-0.30,0.29,0.72,8.32,12206
17:56:00.314,122552,-0.33,0.24,0.67,7.81,12207
17:56:00.324,122562,-0.33,0.20,0.69,7.93,12208
17:56:00.335,122572,-0.33,0.14,0.70,7.91,12209
17:56:00.340,122582,-0.35,0.02,0.67,7.52,12210
17:56:00.352,122592,-0.32,0.14,0.67,7.53,12211
17:56:00.362,122602,-0.30,0.19,0.74,8.22,12212
17:56:00.372,122612,-0.29,0.25,0.74,8.29,12213
17:56:00.387,122622,-0.29,0.30,0.71,8.23,12214
17:56:00.390,122632,-0.48,0.29,0.82,9.91,12215
17:56:00.401,122642,-0.31,0.40,0.71,8.69,12216
17:56:00.417,122652,-0.35,0.43,0.70,8.87,12217
17:56:00.420,122662,-0.40,0.44,0.73,9.38,12218
17:56:00.430,122672,-0.48,0.48,0.66,9.46,12219
17:56:00.443,122682,-0.52,0.42,0.70,9.68,12220
17:56:00.452,122692,-0.56,0.49,0.66,9.93,12221
17:56:00.462,122702,-0.61,0.42,0.61,9.60,12222
17:56:00.502,122712,-0.66,0.44,0.62,10.09,12223
17:56:00.502,122722,-0.71,0.45,0.59,10.28,12224
17:56:00.504,122732,-0.76,0.46,0.53,10.34,12225
17:56:00.505,122742,-0.74,0.49,0.44,9.94,12226
17:56:00.545,122752,-0.79,0.56,0.33,10.21,12227
17:56:00.545,122762,-0.71,0.54,0.30,9.38,12228
17:56:00.545,122772,-0.76,0.43,0.13,8.79,12229
17:56:00.547,122782,-0.86,0.28,0.11,9.12,12230
17:56:00.586,122792,-0.97,0.27,0.04,10.04,12231
17:56:00.586,122802,-0.96,0.16,-0.11,9.77,12232
17:56:00.587,122812,-0.93,0.09,-0.27,9.74,12233
17:56:00.588,122822,-0.64,0.25,-0.48,8.36,12234
17:56:00.590,122832,-0.41,0.36,-0.75,9.27,12235
17:56:00.626,122842,-0.37,0.44,-0.77,9.60,12236
17:56:00.626,122852,-0.63,0.33,-0.45,8.45,12237
17:56:00.628,122862,-0.77,0.17,-0.13,7.98,12238
17:56:00.631,122872,-0.78,0.08,0.08,7.91,12239
17:56:00.669,122882,-0.74,0.05,0.23,7.78,12240
17:56:00.669,122892,-0.71,0.12,0.36,8.04,12241
17:56:00.669,122902,-0.94,0.48,0.21,10.71,12242
17:56:00.670,122912,-2.13,1.89,-0.57,29.00,12243
17:56:00.693,122922,-2.09,1.72,-0.31,27.19,12244
17:56:00.696,122932,-1.39,0.37,-0.07,14.36,12245
17:56:00.700,122942,-0.83,0.35,-0.28,9.45,12246
17:56:00.710,122952,-1.12,0.26,-0.12,11.58,12247
17:56:00.724,122962,-1.36,0.49,0.37,14.88,12248
17:56:00.733,122972,-1.06,0.66,0.91,15.47,12249
17:56:00.741,122982,-0.77,1.08,0.71,15.05,12250
17:56:00.750,122992,-0.56,1.33,0.40,14.94,12251
17:56:00.767,123002,-0.63,0.94,0.03,11.33,12252
17:56:00.776,123012,-0.83,0.31,-0.17,9.05,12253
17:56:00.781,123022,-1.10,-0.21,-0.16,11.30,12254
17:56:00.790,123032,-1.28,-0.50,0.07,13.77,12255
17:56:00.803,123042,-1.19,-0.13,-0.02,11.94,12256
17:56:00.810,123052,-1.04,0.35,-0.15,11.04,12257
17:56:00.821,123062,-0.87,0.65,-0.19,10.97,12258
17:56:00.831,123072,-0.78,0.67,-0.18,10.46,12259
17:56:00.840,123082,-0.92,0.53,-0.15,10.72,12260
17:56:00.861,123092,-1.07,0.35,-0.10,11.26,12261
17:56:00.862,123102,-1.06,0.25,-0.08,10.92,12262
17:56:00.871,123112,-1.02,0.28,-0.10,10.66,12263
17:56:00.881,123122,-1.01,0.34,-0.09,10.66,12264
17:56:00.890,123132,-1.02,0.34,-0.09,10.74,12265
17:56:00.905,123142,-1.02,0.35,-0.08,10.78,12266
17:56:00.911,123152,-0.99,0.34,-0.06,10.46,12267
17:56:00.920,123162,-1.02,0.33,-0.04,10.72,12268
17:56:00.931,123172,-1.01,0.33,-0.01,10.63,12269
17:56:00.940,123182,-1.01,0.34,-0.02,10.60,12270
17:56:00.951,123192,-0.98,0.37,0.02,10.50,12271
17:56:00.965,123202,-0.95,0.38,0.02,10.27,12272
17:56:00.970,123212,-0.95,0.38,0.04,10.27,12273
17:56:00.981,123222,-0.96,0.39,0.06,10.38,12274
17:56:00.999,123232,-0.96,0.40,0.08,10.43,12275
17:56:01.000,123242,-0.95,0.41,0.08,10.44,12276
17:56:01.011,123252,-0.94,0.45,0.06,10.44,12277
17:56:01.020,123262,-0.97,0.40,0.10,10.57,12278
17:56:01.031,123272,-0.96,0.42,0.11,10.55,12279
17:56:01.040,123282,-0.99,0.43,0.17,10.95,12280
17:56:01.054,123292,-0.91,0.39,0.18,10.07,12281
17:56:01.063,123302,-0.93,0.44,0.20,10.42,12282
17:56:01.072,123312,-0.91,0.44,0.20,10.35,12283
17:56:01.080,123322,-0.92,0.46,0.20,10.51,12284
17:56:01.090,123332,-0.94,0.46,0.18,10.58,12285
17:56:01.145,123342,-0.93,0.42,0.16,10.37,12286
17:56:01.153,123352,-0.96,0.41,0.13,10.53,12287
17:56:01.154,123362,-0.97,0.41,0.13,10.66,12288
17:56:01.155,123372,-0.96,0.43,0.12,10.64,12289
17:56:01.156,123382,-0.95,0.45,0.10,10.51,12290
17:56:01.157,123392,-0.94,0.48,0.10,10.63,12291
17:56:01.160,123402,-0.94,0.50,0.07,10.72,12292
17:56:01.221,123412,-0.96,0.47,0.04,10.74,12293
17:56:01.221,123422,-0.97,0.43,0.04,10.65,12294
17:56:01.222,123432,-0.99,0.41,0.03,10.68,12295
17:56:01.224,123442,-1.00,0.38,0.00,10.69,12296
17:56:01.226,123452,-1.00,0.37,0.00,10.70,12297
17:56:01.263,123462,-1.03,0.38,-0.01,10.98,12298
17:56:01.263,123472,-1.03,0.40,-0.02,11.08,12299
17:56:01.264,123482,-1.03,0.41,-0.03,11.08,12300
17:56:01.265,123492,-1.00,0.48,-0.07,11.08,12301
17:56:01.266,123502,-0.98,0.45,-0.07,10.79,12302
17:56:01.304,123512,-0.94,0.46,-0.08,10.55,12303
17:56:01.306,123522,-0.94,0.44,-0.10,10.42,12304
17:56:01.307,123532,-0.96,0.41,-0.09,10.47,12305
17:56:01.308,123542,-1.00,0.43,-0.10,10.92,12306
17:56:01.347,123552,-1.03,0.50,-0.12,11.48,12307
17:56:01.347,123562,-1.03,0.54,-0.13,11.67,12308
17:56:01.348,123572,-1.04,0.53,-0.17,11.81,12309
17:56:01.348,123582,-1.10,0.49,-0.15,12.16,12310
17:56:01.351,123592,-1.14,0.53,-0.16,12.66,12311
17:56:01.387,123602,-1.14,0.57,-0.22,12.93,12312
17:56:01.388,123612,-1.14,0.58,-0.25,13.08,12313
17:56:01.388,123622,-1.18,0.64,-0.24,13.68,12314
17:56:01.404,123632,-1.18,0.74,-0.19,14.08,12315
17:56:01.408,123642,-1.19,0.84,-0.45,15.26,12316
17:56:01.413,123652,-1.17,0.84,-0.55,15.42,12317
17:56:01.421,123662,-1.12,0.74,-0.48,14.22,12318
17:56:01.430,123672,-1.09,0.56,-0.23,12.48,12319
17:56:01.441,123682,-1.12,0.41,0.10,11.92,12320
17:56:01.450,123692,-1.17,0.34,0.29,12.54,12321
17:56:01.461,123702,-1.14,0.22,0.51,12.74,12322
17:56:01.478,123712,-1.07,0.19,0.83,13.67,12323
17:56:01.482,123722,-1.03,0.18,0.94,14.04,12324
17:56:01.492,123732,-1.09,0.21,1.04,15.23,12325
17:56:01.503,123742,-1.10,0.27,1.11,15.88,12326
17:56:01.511,123752,-0.83,0.37,0.87,12.58,12327
17:56:01.520,123762,-0.61,0.48,0.70,10.46,12328
17:56:01.532,123772,-0.48,0.61,0.54,9.49,12329
17:56:01.541,123782,-0.43,0.53,0.68,9.66,12330
17:56:01.554,123792,-0.57,0.29,0.64,9.07,12331
17:56:01.560,123802,-0.60,0.16,0.67,9.13,12332
17:56:01.572,123812,-0.59,0.25,0.70,9.50,12333
17:56:01.586,123822,-0.58,0.33,0.54,8.53,12334
17:56:01.591,123832,-0.58,0.28,0.67,9.28,12335
17:56:01.609,123842,-0.48,0.25,0.72,8.96,12336
17:56:01.611,123852,-0.43,0.23,0.71,8.67,12337
17:56:01.621,123862,-0.41,0.24,0.72,8.62,12338
17:56:01.630,123872,-0.40,0.23,0.68,8.25,12339
17:56:01.645,123882,-0.42,0.23,0.67,8.18,12340
17:56:01.653,123892,-0.42,0.24,0.68,8.33,12341
17:56:01.661,123902,-0.40,0.24,0.69,8.34,12342
17:56:01.679,123912,-0.37,0.28,0.68,8.24,12343
17:56:01.681,123922,-0.34,0.34,0.65,8.09,12344
17:56:01.691,123932,-0.35,0.37,0.62,8.03,12345
17:56:01.701,123942,-0.37,0.38,0.61,8.10,12346
17:56:01.711,123952,-0.40,0.39,0.60,8.19,12347
17:56:01.722,123962,-0.44,0.39,0.58,8.25,12348
