time,timestamp,ax,ay,az,mag,time2
17:56:39.632,161872,-0.91,0.50,0.03,10.41,16139
17:56:39.640,161882,-0.92,0.50,0.03,10.42,16140
17:56:39.650,161892,-0.92,0.49,0.03,10.38,16141
17:56:39.660,161902,-0.91,0.49,0.04,10.38,16142
17:56:39.669,161912,-0.91,0.49,0.04,10.36,16143
17:56:39.682,161922,-0.91,0.50,0.04,10.43,16144
17:56:39.697,161932,-0.91,0.50,0.04,10.34,16145
17:56:39.699,161942,-0.91,0.49,0.03,10.33,16146
17:56:39.719,161952,-0.91,0.50,0.04,10.42,16147
17:56:39.719,161962,-0.91,0.50,0.03,10.39,16148
17:56:39.736,161972,-0.92,0.50,0.04,10.42,16149
17:56:39.739,161982,-0.91,0.50,0.04,10.39,16150
17:56:39.751,161992,-0.92,0.50,0.04,10.49,16151
17:56:39.759,162002,-0.91,0.50,0.03,10.44,16152
17:56:39.773,162012,-0.91,0.50,0.03,10.43,16153
17:56:39.784,162022,-0.91,0.50,0.04,10.37,16154
17:56:39.789,162032,-0.91,0.50,0.04,10.38,16155
17:56:39.806,162042,-0.92,0.49,0.03,10.40,16156
17:56:39.810,162052,-0.91,0.49,0.03,10.37,16157
17:56:39.820,162062,-0.91,0.49,0.03,10.37,16158
17:56:39.830,162072,-0.92,0.50,0.03,10.44,16159
17:56:39.846,162082,-0.91,0.50,0.03,10.35,16160
17:56:39.850,162092,-0.90,0.50,0.05,10.31,16161
17:56:39.861,162102,-0.91,0.50,0.05,10.42,16162
17:56:39.869,162112,-0.92,0.50,0.03,10.47,16163
17:56:39.880,162122,-0.91,0.50,0.04,10.39,16164
17:56:39.890,162132,-0.91,0.49,0.04,10.36,16165
17:56:39.901,162142,-0.92,0.50,0.04,10.42,16166
17:56:39.911,162152,-0.92,0.50,0.03,10.41,16167
17:56:39.919,162162,-0.91,0.50,0.04,10.41,16168
17:56:39.930,162172,-0.90,0.50,0.04,10.33,16169
17:56:39.940,162182,-0.91,0.50,0.03,10.39,16170
17:56:39.956,162192,-0.91,0.50,0.03,10.40,16171
17:56:39.961,162202,-0.92,0.50,0.03,10.45,16172
17:56:39.970,162212,-0.91,0.50,0.03,10.41,16173
17:56:39.981,162222,-0.91,0.51,0.03,10.39,16174
17:56:39.996,162232,-0.91,0.51,0.02,10.41,16175
17:56:40.000,162242,-0.92,0.50,0.03,10.46,16176
17:56:40.057,162252,-0.92,0.49,0.03,10.40,16177
17:56:40.057,162262,-0.93,0.48,0.02,10.44,16178
17:56:40.061,162272,-0.92,0.49,0.02,10.39,16179
17:56:40.061,162282,-0.90,0.51,0.03,10.35,16180
17:56:40.062,162292,-0.89,0.52,0.02,10.33,16181
17:56:40.099,162302,-0.89,0.50,0.02,10.26,16182
17:56:40.099,162312,-0.91,0.50,0.03,10.44,16183
17:56:40.102,162322,-0.93,0.48,0.03,10.43,16184
17:56:40.138,162332,-0.93,0.49,0.04,10.49,16185
17:56:40.139,162342,-0.92,0.51,0.05,10.49,16186
17:56:40.141,162352,-0.91,0.51,0.06,10.48,16187
17:56:40.141,162362,-0.91,0.50,0.06,10.41,16188
17:56:40.143,162372,-0.91,0.50,0.06,10.39,16189
17:56:40.143,162382,-0.90,0.51,0.06,10.35,16190
17:56:40.180,162392,-0.92,0.51,0.06,10.48,16191
17:56:40.182,162402,-0.93,0.49,0.04,10.50,16192
17:56:40.183,162412,-0.93,0.48,0.02,10.44,16193
17:56:40.184,162422,-0.93,0.47,0.01,10.45,16194
17:56:40.216,162432,-0.94,0.47,-0.00,10.55,16195
17:56:40.217,162442,-0.94,0.48,-0.02,10.53,16196
17:56:40.218,162452,-0.94,0.48,-0.05,10.55,16197
17:56:40.220,162462,-0.94,0.49,-0.07,10.63,16198
17:56:40.242,162472,-0.95,0.48,-0.10,10.65,16199
17:56:40.243,162482,-0.95,0.46,-0.13,10.62,16200
17:56:40.250,162492,-0.95,0.46,-0.16,10.64,16201
17:56:40.260,162502,-0.95,0.46,-0.19,10.70,16202
17:56:40.270,162512,-0.94,0.47,-0.23,10.77,16203
17:56:40.279,162522,-0.93,0.47,-0.26,10.74,16204
17:56:40.290,162532,-0.93,0.48,-0.28,10.84,16205
17:56:40.308,162542,-0.92,0.49,-0.30,10.82,16206
17:56:40.311,162552,-0.92,0.49,-0.33,10.92,16207
17:56:40.326,162562,-0.91,0.51,-0.36,11.04,16208
17:56:40.330,162572,-0.91,0.50,-0.41,11.17,16209
17:56:40.340,162582,-0.92,0.49,-0.43,11.27,16210
17:56:40.351,162592,-0.94,0.49,-0.45,11.48,16211
17:56:40.359,162602,-0.95,0.48,-0.46,11.58,16212
17:56:40.371,162612,-0.93,0.52,-0.41,11.45,16213
17:56:40.379,162622,-0.92,0.54,-0.34,11.19,16214
17:56:40.392,162632,-0.93,0.57,-0.21,11.09,16215
17:56:40.401,162642,-0.96,0.60,-0.08,11.39,16216
17:56:40.415,162652,-1.02,0.63,0.06,11.98,16217
17:56:40.420,162662,-1.07,0.66,0.16,12.66,16218
17:56:40.429,162672,-1.11,0.66,0.20,13.05,16219
17:56:40.471,162682,-1.13,0.67,0.18,13.28,16220
17:56:40.472,162692,-1.14,0.65,0.26,13.41,16221
17:56:40.473,162702,-1.15,0.63,0.25,13.32,16222
17:56:40.474,162712,-1.11,0.56,0.29,12.77,16223
17:56:40.479,162722,-1.08,0.49,0.31,12.29,16224
17:56:40.493,162732,-1.05,0.42,0.28,11.62,16225
17:56:40.502,162742,-1.05,0.39,0.30,11.56,16226
17:56:40.509,162752,-1.04,0.36,0.30,11.39,16227
17:56:40.526,162762,-1.00,0.36,0.29,11.07,16228
17:56:40.529,162772,-0.97,0.41,0.27,10.83,16229
17:56:40.542,162782,-0.92,0.46,0.27,10.63,16230
17:56:40.552,162792,-0.85,0.54,0.25,10.36,16231
17:56:40.562,162802,-0.77,0.62,0.20,10.13,16232
17:56:40.569,162812,-0.72,0.64,0.17,9.77,16233
17:56:40.587,162822,-0.70,0.61,0.15,9.39,16234
17:56:40.589,162832,-0.71,0.58,0.16,9.34,16235
17:56:40.600,162842,-0.75,0.57,0.14,9.51,16236
17:56:40.610,162852,-0.79,0.56,0.14,9.77,16237
17:56:40.620,162862,-0.81,0.56,0.15,9.95,16238
17:56:40.635,162872,-0.86,0.30,0.08,9.11,16239
17:56:40.639,162882,-0.84,0.47,0.13,9.70,16240
17:56:40.653,162892,-0.86,0.55,0.17,10.32,16241
17:56:40.663,162902,-0.85,0.43,0.09,9.60,16242
17:56:40.669,162912,-0.86,0.55,0.19,10.40,16243
17:56:40.687,162922,-0.86,0.53,0.12,10.14,16244
17:56:40.688,162932,-0.86,0.53,0.11,10.15,16245
17:56:40.700,162942,-0.83,0.55,0.06,9.99,16246
17:56:40.717,162952,-0.81,0.53,0.03,9.69,16247
17:56:40.718,162962,-0.81,0.53,0.03,9.68,16248
17:56:40.730,162972,-0.83,0.50,-0.01,9.70,16249
17:56:40.743,162982,-0.82,0.49,-0.00,9.57,16250
17:56:40.749,162992,-0.91,0.42,-0.00,10.08,16251
17:56:40.761,163002,-0.93,0.42,-0.03,10.21,16252
17:56:40.779,163012,-0.95,0.38,-0.07,10.25,16253
17:56:40.780,163022,-0.98,0.33,-0.04,10.36,16254
17:56:40.860,163032,-1.02,0.29,-0.01,10.63,16255
17:56:40.862,163042,-1.04,0.25,-0.07,10.71,16256
17:56:40.866,163052,-0.96,0.27,-0.12,9.99,16257
17:56:40.866,163062,-0.84,0.36,-0.18,9.28,16258
17:56:40.866,163072,-0.74,0.41,-0.19,8.67,16259
17:56:40.866,163082,-0.68,0.43,-0.24,8.43,16260
17:56:40.905,163092,-0.70,0.40,-0.24,8.45,16261
17:56:40.908,163102,-0.71,0.40,-0.27,8.57,16262
17:56:40.908,163112,-0.66,0.40,-0.27,8.11,16263
17:56:40.908,163122,-0.61,0.39,-0.25,7.71,16264
17:56:40.908,163132,-0.62,0.36,-0.19,7.42,16265
17:56:40.908,163142,-0.69,0.29,-0.10,7.55,16266
17:56:40.943,163152,-0.75,0.25,-0.01,7.87,16267
17:56:40.947,163162,-0.86,0.32,0.00,9.20,16268
17:56:40.947,163172,-1.42,0.86,-0.14,16.67,16269
17:56:40.947,163182,-1.65,1.36,-0.34,21.70,16270
17:56:40.949,163192,-1.24,0.95,-0.33,15.95,16271
17:56:40.981,163202,-0.87,1.05,-0.35,14.07,16272
17:56:40.982,163212,-0.85,1.02,-0.32,13.60,16273
17:56:40.983,163222,-0.83,0.76,-0.19,11.38,16274
17:56:41.022,163232,-1.12,0.42,0.09,12.03,16275
17:56:41.022,163242,-1.23,0.14,0.31,12.74,16276
17:56:41.024,163252,-1.07,0.22,0.34,11.41,16277
17:56:41.026,163262,-0.91,0.62,0.20,11.19,16278
17:56:41.056,163272,-0.86,0.74,0.03,11.32,16279
17:56:41.057,163282,-0.87,0.44,-0.04,9.81,16280
17:56:41.058,163292,-0.87,0.26,-0.06,9.10,16281
17:56:41.059,163302,-0.93,0.23,-0.07,9.55,16282
17:56:41.072,163312,-0.98,0.31,-0.07,10.26,16283
17:56:41.079,163322,-0.96,0.44,-0.06,10.53,16284
17:56:41.090,163332,-0.87,0.58,-0.03,10.45,16285
17:56:41.099,163342,-0.84,0.64,-0.04,10.58,16286
17:56:41.112,163352,-0.84,0.66,0.02,10.72,16287
17:56:41.121,163362,-0.87,0.63,0.04,10.73,16288
17:56:41.131,163372,-0.93,0.57,0.01,10.90,16289
17:56:41.141,163382,-0.97,0.42,-0.02,10.63,16290
17:56:41.149,163392,-1.05,0.32,-0.03,11.00,16291
17:56:41.159,163402,-1.07,0.28,-0.07,11.13,16292
17:56:41.177,163412,-1.07,0.29,-0.10,11.07,16293
17:56:41.178,163422,-1.05,0.32,-0.11,11.08,16294
17:56:41.195,163432,-1.02,0.37,-0.11,10.92,16295
17:56:41.201,163442,-0.98,0.41,-0.12,10.69,16296
17:56:41.214,163452,-0.97,0.42,-0.13,10.61,16297
17:56:41.219,163462,-0.98,0.39,-0.11,10.66,16298
17:56:41.229,163472,-1.02,0.36,-0.11,10.85,16299
17:56:41.240,163482,-0.99,0.35,-0.10,10.54,16300
17:56:41.252,163492,-0.99,0.37,-0.10,10.58,16301
17:56:41.262,163502,-0.97,0.37,-0.10,10.37,16302
17:56:41.271,163512,-0.95,0.38,-0.08,10.28,16303
17:56:41.289,163522,-0.95,0.37,-0.08,10.26,16304
17:56:41.289,163532,-0.94,0.38,-0.08,10.16,16305
17:56:41.299,163542,-0.95,0.41,-0.04,10.34,16306
17:56:41.317,163552,-0.93,0.43,0.01,10.20,16307
17:56:41.318,163562,-0.93,0.43,0.06,10.23,16308
17:56:41.333,163572,-0.92,0.44,0.10,10.21,16309
17:56:41.346,163582,-0.92,0.43,0.11,10.23,16310
17:56:41.349,163592,-0.91,0.42,0.12,10.14,16311
17:56:41.361,163602,-0.90,0.44,0.12,10.06,16312
17:56:41.374,163612,-0.91,0.43,0.12,10.13,16313
17:56:41.381,163622,-0.93,0.42,0.14,10.26,16314
17:56:41.394,163632,-0.91,0.44,0.13,10.22,16315
17:56:41.400,163642,-0.93,0.41,0.12,10.24,16316
17:56:41.413,163652,-0.92,0.42,0.08,10.18,16317
17:56:41.420,163662,-1.00,0.38,0.18,10.86,16318
17:56:41.430,163672,-0.96,0.39,0.14,10.44,16319
17:56:41.470,163682,-0.96,0.44,0.13,10.61,16320
17:56:41.472,163692,-0.93,0.43,0.14,10.33,16321
17:56:41.474,163702,-0.95,0.44,0.15,10.57,16322
17:56:41.511,163712,-0.98,0.43,0.15,10.83,16323
17:56:41.511,163722,-1.01,0.45,0.13,11.13,16324
17:56:41.514,163732,-1.04,0.46,0.13,11.47,16325
17:56:41.516,163742,-1.05,0.50,0.07,11.69,16326
17:56:41.516,163752,-1.08,0.52,0.04,11.98,16327
17:56:41.552,163762,-1.14,0.49,0.01,12.38,16328
17:56:41.552,163772,-1.14,0.47,-0.02,12.29,16329
17:56:41.555,163782,-1.08,0.49,-0.06,11.91,16330
17:56:41.556,163792,-1.08,0.51,-0.08,11.97,16331
17:56:41.594,163802,-0.99,0.49,0.01,11.06,16332
17:56:41.598,163812,-0.95,0.40,0.16,10.47,16333
17:56:41.599,163822,-1.10,0.57,-0.25,12.60,16334
17:56:41.599,163832,-1.02,0.47,-0.02,11.27,16335
17:56:41.638,163842,-1.08,0.46,-0.06,11.76,16336
17:56:41.638,163852,-1.08,0.44,-0.12,11.72,16337
17:56:41.638,163862,-1.11,0.47,-0.10,12.06,16338
17:56:41.640,163872,-1.08,0.51,-0.14,12.04,16339
17:56:41.640,163882,-1.02,0.56,-0.15,11.72,16340
17:56:41.661,163892,-0.97,0.60,-0.20,11.54,16341
17:56:41.661,163902,-0.98,0.53,-0.21,11.39,16342
17:56:41.673,163912,-1.01,0.52,-0.24,11.66,16343
17:56:41.682,163922,-1.03,0.55,-0.24,11.89,16344
17:56:41.691,163932,-1.05,0.60,-0.27,12.39,16345
17:56:41.699,163942,-1.06,0.62,-0.20,12.41,16346
17:56:41.710,163952,-1.09,0.69,-0.26,13.11,16347
17:56:41.719,163962,-1.03,0.80,-0.50,13.96,16348
17:56:41.731,163972,-0.97,0.84,-0.39,13.39,16349
17:56:41.763,163982,-0.98,0.73,-0.13,12.33,16350
17:56:41.764,163992,-1.03,0.61,0.05,11.92,16351
17:56:41.765,164002,-1.07,0.45,0.23,11.83,16352
17:56:41.770,164012,-1.03,0.27,0.45,11.59,16353
17:56:41.780,164022,-1.00,0.18,0.80,12.94,16354
17:56:41.795,164032,-1.00,0.16,1.29,16.36,16355
17:56:41.803,164042,-1.30,0.14,1.10,17.09,16356
17:56:41.813,164052,-1.41,0.12,0.80,16.23,16357
17:56:41.822,164062,-1.00,0.18,0.83,13.13,16358
17:56:41.832,164072,-0.71,0.33,0.82,11.34,16359
17:56:41.840,164082,-0.69,0.41,0.77,11.10,16360
17:56:41.849,164092,-0.56,0.42,0.68,9.81,16361
17:56:41.859,164102,-0.50,0.40,0.62,8.89,16362
17:56:41.871,164112,-0.50,0.42,0.65,9.23,16363
17:56:41.886,164122,-0.48,0.40,0.67,9.18,16364
17:56:41.890,164132,-0.41,0.38,0.63,8.42,16365
17:56:41.900,164142,-0.46,0.34,0.65,8.66,16366
17:56:41.918,164152,-0.46,0.31,0.63,8.39,16367
17:56:41.918,164162,-0.44,0.30,0.64,8.34,16368
17:56:41.930,164172,-0.44,0.33,0.58,8.00,16369
17:56:41.942,164182,-0.44,0.34,0.59,8.13,16370
17:56:41.953,164192,-0.44,0.33,0.60,8.10,16371
17:56:41.963,164202,-0.43,0.36,0.55,7.88,16372
17:56:41.973,164212,-0.36,0.29,0.29,5.49,16373
17:56:41.979,164222,-0.41,0.48,0.59,8.69,16374
17:56:41.991,164232,-0.42,0.46,0.57,8.46,16375
17:56:42.001,164242,-0.45,0.47,0.55,8.55,16376
17:56:42.012,164252,-0.46,0.45,0.56,8.52,16377
17:56:42.020,164262,-0.46,0.43,0.56,8.45,16378
17:56:42.029,164272,-0.51,0.41,0.52,8.37,16379
17:56:42.044,164282,-0.57,0.40,0.51,8.58,16380
17:56:42.050,164292,-0.61,0.39,0.51,8.79,16381
17:56:42.063,164302,-0.62,0.36,0.49,8.66,16382
17:56:42.069,164312,-0.62,0.36,0.50,8.78,16383
17:56:42.079,164322,-0.64,0.38,0.50,8.91,16384
17:56:42.107,164332,-0.63,0.43,0.50,9.10,16385
17:56:42.108,164342,-0.67,0.46,0.47,9.38,16386
17:56:42.110,164352,-0.64,0.48,0.46,9.22,16387
17:56:42.124,164362,-0.71,0.47,0.42,9.51,16388
17:56:42.129,164372,-0.76,0.43,0.41,9.62,16389
17:56:42.140,164382,-0.81,0.41,0.40,9.96,16390
17:56:42.158,164392,-0.88,0.43,0.33,10.30,16391
17:56:42.158,164402,-0.89,0.39,0.20,9.94,16392
17:56:42.171,164412,-0.90,0.45,0.18,10.18,16393
17:56:42.183,164422,-0.87,0.48,0.12,9.99,16394
17:56:42.190,164432,-0.84,0.46,0.04,9.59,16395
17:56:42.208,164442,-0.82,0.45,-0.00,9.32,16396
17:56:42.209,164452,-0.83,0.41,-0.04,9.27,16397
17:56:42.272,164462,-0.84,0.35,-0.11,9.16,16398
17:56:42.272,164472,-0.80,0.29,-0.20,8.75,16399
17:56:42.273,164482,-0.71,0.32,-0.36,8.64,16400
17:56:42.276,164492,-0.61,0.38,-0.55,9.05,16401
17:56:42.276,164502,-0.63,0.43,-0.53,9.30,16402
17:56:42.276,164512,-0.78,0.35,-0.32,9.14,16403
17:56:42.312,164522,-0.88,0.18,-0.10,9.04,16404
17:56:42.315,164532,-0.88,0.10,0.08,8.88,16405
17:56:42.315,164542,-0.88,0.10,0.21,9.10,16406
17:56:42.315,164552,-1.02,0.26,0.19,10.69,16407
17:56:42.354,164562,-2.01,1.05,-0.21,22.79,16408
17:56:42.354,164572,-2.05,1.05,-0.30,23.23,16409
17:56:42.354,164582,-1.44,0.58,-0.11,15.56,16410
17:56:42.358,164592,-0.83,1.04,-0.10,13.36,16411
17:56:42.394,164602,-0.61,1.13,-0.03,12.83,16412
17:56:42.396,164612,-0.41,1.11,0.20,11.99,16413
17:56:42.396,164622,-0.58,1.03,0.50,12.84,16414
17:56:42.397,164632,-0.82,0.75,0.56,12.46,16415
17:56:42.400,164642,-0.93,0.47,0.54,11.77,16416
17:56:42.435,164652,-1.05,0.24,0.41,11.52,16417
17:56:42.435,164662,-1.18,0.05,0.20,11.97,16418
17:56:42.437,164672,-1.20,-0.07,0.08,12.06,16419
17:56:42.440,164682,-1.15,-0.16,0.01,11.60,16420
17:56:42.450,164692,-0.96,0.05,-0.04,9.58,16421
17:56:42.459,164702,-0.98,0.25,0.07,10.12,16422
17:56:42.469,164712,-0.90,0.50,-0.03,10.32,16423
17:56:42.481,164722,-0.91,0.58,0.00,10.75,16424
17:56:42.490,164732,-0.97,0.50,0.05,10.91,16425
17:56:42.504,164742,-1.01,0.37,0.07,10.81,16426
17:56:42.510,164752,-1.00,0.33,0.08,10.59,16427
17:56:42.520,164762,-0.98,0.29,0.03,10.28,16428
17:56:42.530,164772,-0.98,0.32,0.01,10.32,16429
17:56:42.546,164782,-1.01,0.35,-0.02,10.69,16430
17:56:42.550,164792,-1.04,0.35,-0.03,10.92,16431
17:56:42.568,164802,-1.03,0.38,-0.05,10.99,16432
17:56:42.569,164812,-1.01,0.37,-0.07,10.79,16433
17:56:42.580,164822,-1.01,0.33,-0.05,10.63,16434
17:56:42.597,164832,-0.98,0.33,-0.02,10.38,16435
17:56:42.600,164842,-0.96,0.35,0.00,10.23,16436
17:56:42.613,164852,-0.98,0.38,0.02,10.50,16437
17:56:42.620,164862,-0.99,0.40,0.00,10.65,16438
17:56:42.629,164872,-1.00,0.42,-0.01,10.79,16439
17:56:42.640,164882,-1.02,0.39,-0.00,10.91,16440
17:56:42.651,164892,-0.99,0.43,-0.00,10.83,16441
17:56:42.661,164902,-0.96,0.43,-0.00,10.49,16442
17:56:42.673,164912,-0.95,0.44,0.01,10.49,16443
17:56:42.679,164922,-0.94,0.45,0.06,10.45,16444
17:56:42.690,164932,-0.94,0.49,0.08,10.62,16445
17:56:42.705,164942,-0.98,0.44,0.14,10.88,16446
17:56:42.710,164952,-1.02,0.40,0.17,11.09,16447
17:56:42.721,164962,-1.01,0.39,0.17,10.92,16448
17:56:42.730,164972,-1.00,0.40,0.15,10.91,16449
17:56:42.741,164982,-1.02,0.41,0.10,11.03,16450
17:56:42.751,164992,-1.02,0.43,0.07,11.08,16451
17:56:42.765,165002,-0.99,0.45,0.05,10.87,16452
17:56:42.770,165012,-1.01,0.44,0.04,10.99,16453
17:56:42.780,165022,-1.04,0.44,0.03,11.25,16454
17:56:42.796,165032,-1.06,0.42,0.02,11.37,16455
17:56:42.802,165042,-1.04,0.44,-0.01,11.27,16456
17:56:42.810,165052,-1.02,0.46,-0.06,11.22,16457
17:56:42.820,165062,-1.03,0.44,-0.08,11.21,16458
17:56:42.835,165072,-1.01,0.44,-0.10,11.10,16459
17:56:42.840,165082,-1.01,0.40,-0.13,10.92,16460
17:56:42.850,165092,-1.00,0.39,-0.14,10.85,16461
17:56:42.865,165102,-1.00,0.41,-0.14,10.89,16462
17:56:42.872,165112,-0.99,0.43,-0.11,10.82,16463
17:56:42.882,165122,-0.97,0.42,-0.11,10.63,16464
17:56:42.893,165132,-0.95,0.42,-0.14,10.45,16465
17:56:42.900,165142,-0.97,0.41,-0.14,10.63,16466
17:56:42.910,165152,-1.03,0.41,-0.13,11.17,16467
17:56:42.969,165162,-1.12,0.45,-0.13,12.12,16468
17:56:42.973,165172,-1.16,0.52,-0.16,12.86,16469
17:56:42.973,165182,-1.12,0.59,-0.20,12.85,16470
17:56:42.973,165192,-1.10,0.58,-0.29,12.75,16471
17:56:42.973,165202,-1.09,0.58,-0.34,12.78,16472
17:56:42.975,165212,-1.07,0.67,-0.40,13.28,16473
17:56:43.009,165222,-1.11,0.75,-0.36,13.86,16474
17:56:43.010,165232,-1.15,0.85,-0.65,15.74,16475
17:56:43.010,165242,-1.16,0.89,-0.65,16.04,16476
17:56:43.012,165252,-1.14,0.84,-0.48,14.99,16477
17:56:43.115,165262,-1.12,0.65,-0.27,13.17,16478
17:56:43.116,165272,-1.20,0.47,0.01,12.87,16479
17:56:43.116,165282,-1.28,0.36,0.41,13.95,16480
17:56:43.121,165292,-1.36,0.37,0.65,15.55,16481
17:56:43.121,165302,-1.28,0.29,0.88,15.83,16482
17:56:43.121,165312,-1.39,0.17,1.05,17.56,16483
17:56:43.141,165322,-1.51,0.06,1.23,19.48,16484
17:56:43.144,165332,-1.30,0.04,1.13,17.24,16485
17:56:43.144,165342,-0.82,0.25,0.87,12.27,16486
17:56:43.144,165352,-0.69,0.47,0.74,11.16,16487
17:56:43.144,165362,-0.66,0.58,0.71,11.32,16488
17:56:43.146,165372,-0.51,0.58,0.56,9.54,16489
17:56:43.146,165382,-0.23,0.61,0.70,9.58,16490
17:56:43.151,165392,-0.47,0.45,0.70,9.62,16491
17:56:43.162,165402,-0.47,0.35,0.65,8.72,16492
17:56:43.171,165412,-0.48,0.42,0.71,9.51,16493
17:56:43.180,165422,-0.46,0.38,0.69,9.10,16494
17:56:43.198,165432,-0.50,0.19,0.79,9.54,16495
17:56:43.199,165442,-0.38,0.28,0.71,8.54,16496
17:56:43.210,165452,-0.39,0.21,0.67,8.00,16497
17:56:43.220,165462,-0.36,0.15,0.66,7.69,16498
17:56:43.231,165472,-0.35,0.13,0.68,7.79,16499
17:56:43.248,165482,-0.35,0.16,0.68,7.86,16500
17:56:43.249,165492,-0.32,0.21,0.70,7.98,16501
17:56:43.261,165502,-0.25,0.28,0.43,5.73,16502
17:56:43.269,165512,-0.32,0.35,0.65,8.04,16503
17:56:43.279,165522,-0.31,0.35,0.63,7.88,16504
17:56:43.293,165532,-0.35,0.32,0.62,7.80,16505
17:56:43.299,165542,-0.40,0.30,0.64,8.11,16506
17:56:43.318,165552,-0.45,0.29,0.69,8.74,16507
17:56:43.319,165562,-0.51,0.32,0.66,8.96,16508
17:56:43.334,165572,-0.55,0.30,0.66,9.12,16509
17:56:43.343,165582,-0.57,0.30,0.65,9.12,16510
17:56:43.353,165592,-0.55,0.32,0.66,9.17,16511
17:56:43.385,165602,-0.54,0.34,0.66,9.19,16512
17:56:43.387,165612,-0.53,0.38,0.60,8.90,16513
17:56:43.387,165622,-0.57,0.43,0.61,9.42,16514
17:56:43.390,165632,-0.60,0.47,0.58,9.61,16515
17:56:43.407,165642,-0.67,0.47,0.49,9.56,16516
17:56:43.420,165652,-0.73,0.48,0.40,9.58,16517
17:56:43.421,165662,-0.79,0.53,0.34,10.09,16518
17:56:43.437,165672,-0.83,0.51,0.30,10.15,16519
17:56:43.438,165682,-0.91,0.48,0.24,10.55,16520
17:56:43.456,165692,-1.02,0.38,0.26,11.17,16521
17:56:43.459,165702,-1.02,0.25,0.20,10.66,16522
17:56:43.470,165712,-0.95,0.22,0.08,9.81,16523
17:56:43.480,165722,-0.83,0.23,-0.03,8.64,16524
17:56:43.499,165732,-0.70,0.39,-0.16,8.22,16525
17:56:43.501,165742,-0.56,0.51,-0.32,8.21,16526
17:56:43.511,165752,-0.39,0.58,-0.53,8.77,16527
17:56:43.527,165762,-0.47,0.52,-0.56,9.00,16528
17:56:43.528,165772,-0.59,0.32,-0.27,7.24,16529
17:56:43.542,165782,-0.80,0.11,0.13,8.21,16530
17:56:43.549,165792,-0.83,-0.01,0.18,8.51,16531
17:56:43.567,165802,-0.89,-0.03,0.34,9.55,16532
17:56:43.568,165812,-1.72,0.91,0.20,19.55,16533
17:56:43.579,165822,-2.13,2.00,-0.23,29.24,16534
17:56:43.591,165832,-1.32,1.03,-0.22,16.87,16535
17:56:43.607,165842,-0.34,0.94,-0.27,10.42,16536
17:56:43.608,165852,-0.75,0.78,-0.34,11.38,16537
17:56:43.629,165862,-1.33,0.24,0.00,13.49,16538
17:56:43.629,165872,-1.47,-0.14,0.59,15.87,16539
17:56:43.642,165882,-1.30,-0.08,0.92,15.98,16540
17:56:43.652,165892,-0.84,0.72,0.56,12.35,16541
17:56:43.661,165902,-0.61,1.28,0.32,14.54,16542
17:56:43.701,165912,-0.58,1.13,-0.14,12.76,16543
17:56:43.703,165922,-0.77,0.37,-0.12,8.64,16544
17:56:43.703,165932,-1.00,-0.06,-0.01,10.03,16545
17:56:43.705,165942,-1.22,-0.14,0.13,12.38,16546
17:56:43.742,165952,-1.18,0.11,0.12,11.87,16547
17:56:43.743,165962,-1.01,0.47,0.01,11.09,16548
17:56:43.744,165972,-0.86,0.57,-0.05,10.34,16549
17:56:43.746,165982,-0.88,0.42,-0.05,9.80,16550
17:56:43.784,165992,-0.99,0.37,-0.04,10.59,16551
17:56:43.784,166002,-1.05,0.31,-0.07,10.98,16552
17:56:43.786,166012,-1.03,0.27,-0.10,10.69,16553
17:56:43.787,166022,-1.02,0.28,-0.11,10.62,16554
17:56:43.790,166032,-0.99,0.37,-0.14,10.67,16555
17:56:43.825,166042,-0.97,0.49,-0.16,10.92,16556
17:56:43.825,166052,-0.96,0.50,-0.16,10.95,16557
17:56:43.829,166062,-0.98,0.41,-0.15,10.70,16558
17:56:43.829,166072,-1.01,0.34,-0.14,10.75,16559
17:56:43.866,166082,-1.01,0.34,-0.13,10.75,16560
17:56:43.867,166092,-0.97,0.39,-0.08,10.53,16561
17:56:43.868,166102,-0.92,0.44,-0.04,10.18,16562
17:56:43.870,166112,-0.89,0.48,-0.01,10.15,16563
17:56:43.892,166122,-0.89,0.48,0.03,10.15,16564
17:56:43.893,166132,-0.92,0.44,0.05,10.22,16565
17:56:43.900,166142,-0.95,0.39,0.05,10.34,16566
17:56:43.912,166152,-0.98,0.38,0.09,10.50,16567
17:56:43.924,166162,-0.97,0.39,0.12,10.56,16568
17:56:43.933,166172,-0.96,0.41,0.15,10.57,16569
17:56:43.943,166182,-0.94,0.44,0.18,10.51,16570
17:56:43.950,166192,-0.94,0.43,0.18,10.49,16571
17:56:43.962,166202,-0.94,0.42,0.18,10.46,16572
17:56:43.974,166212,-0.97,0.42,0.16,10.67,16573
17:56:43.981,166222,-0.99,0.40,0.16,10.80,16574
17:56:43.990,166232,-1.01,0.40,0.13,10.93,16575
17:56:44.004,166242,-1.04,0.39,0.11,11.13,16576
17:56:44.012,166252,-1.03,0.39,0.10,11.09,16577
17:56:44.019,166262,-1.03,0.41,0.10,11.13,16578
17:56:44.031,166272,-1.01,0.45,0.08,11.04,16579
17:56:44.044,166282,-1.01,0.49,0.04,11.26,16580
17:56:44.053,166292,-1.02,0.50,-0.01,11.31,16581
17:56:44.059,166302,-1.04,0.47,-0.02,11.41,16582
17:56:44.076,166312,-1.08,0.44,-0.06,11.67,16583
17:56:44.081,166322,-1.11,0.42,-0.08,11.90,16584
17:56:44.096,166332,-1.10,0.43,-0.10,11.88,16585
17:56:44.099,166342,-1.09,0.42,-0.11,11.76,16586
17:56:44.112,166352,-1.07,0.39,-0.12,11.49,16587
17:56:44.121,166362,-1.04,0.38,-0.12,11.13,16588
17:56:44.131,166372,-1.01,0.38,-0.13,10.90,16589
17:56:44.141,166382,-1.01,0.38,-0.12,10.81,16590
17:56:44.152,166392,-1.01,0.35,-0.15,10.80,16591
17:56:44.162,166402,-1.05,0.34,-0.14,11.14,16592
17:56:44.171,166412,-1.09,0.39,-0.14,11.70,16593
17:56:44.180,166422,-1.14,0.47,-0.12,12.36,16594
17:56:44.190,166432,-1.12,0.55,-0.14,12.59,16595
17:56:44.200,166442,-1.09,0.58,-0.13,12.43,16596
17:56:44.216,166452,-1.07,0.57,-0.17,12.29,16597
17:56:44.220,166462,-1.07,0.61,-0.20,12.49,16598
17:56:44.230,166472,-1.06,0.67,-0.26,12.79,16599
17:56:44.239,166482,-1.07,0.71,-0.26,13.11,16600
17:56:44.256,166492,-1.11,0.79,-0.41,14.28,16601
17:56:44.259,166502,-1.14,0.89,-0.85,16.76,16602
17:56:44.269,166512,-1.13,0.91,-0.65,15.86,16603
17:56:44.281,166522,-1.08,0.77,-0.51,14.22,16604
17:56:44.289,166532,-1.07,0.59,-0.34,12.66,16605
17:56:44.300,166542,-1.20,0.44,-0.08,12.79,16606
17:56:44.314,166552,-1.28,0.39,0.38,13.97,16607
17:56:44.320,166562,-1.29,0.36,0.76,15.35,16608
17:56:44.361,166572,-1.15,0.19,0.98,15.26,16609
17:56:44.362,166582,-1.41,0.11,1.19,18.50,16610
17:56:44.364,166592,-1.64,-0.03,1.09,19.67,16611
17:56:44.364,166602,-1.26,-0.08,1.00,16.13,16612
17:56:44.370,166612,-0.78,0.21,0.84,11.68,16613
17:56:44.386,166622,-0.68,0.37,0.85,11.47,16614
17:56:44.390,166632,-0.58,0.46,0.97,12.23,16615
17:56:44.407,166642,-0.47,0.63,0.58,9.73,16616
17:56:44.410,166652,-0.36,0.56,0.44,8.00,16617
17:56:44.419,166662,-0.37,0.54,0.64,9.20,16618
17:56:44.435,166672,-0.54,0.45,0.68,9.74,16619
17:56:44.440,166682,-0.49,0.39,0.71,9.51,16620
17:56:44.476,166692,-0.41,0.39,0.70,9.03,16621
17:56:44.476,166702,-0.33,0.31,0.70,8.32,16622
17:56:44.478,166712,-0.32,0.28,0.66,7.82,16623
17:56:44.479,166722,-0.36,0.27,0.64,7.83,16624
17:56:44.517,166732,-0.41,0.15,0.70,8.25,16625
17:56:44.518,166742,-0.32,0.18,0.73,8.16,16626
17:56:44.519,166752,-0.36,0.18,0.67,7.80,16627
17:56:44.525,166762,-0.33,0.21,0.68,7.85,16628
17:56:44.559,166772,-0.30,0.26,0.66,7.75,16629
17:56:44.562,166782,-0.35,0.32,0.82,9.45,16630
17:56:44.562,166792,-0.33,0.40,0.59,7.87,16631
17:56:44.564,166802,-0.34,0.43,0.59,8.09,16632
17:56:44.602,166812,-0.37,0.44,0.60,8.25,16633
17:56:44.602,166822,-0.41,0.45,0.60,8.51,16634
17:56:44.603,166832,-0.49,0.46,0.59,8.89,16635
17:56:44.605,166842,-0.56,0.44,0.59,9.24,16636
17:56:44.644,166852,-0.62,0.41,0.59,9.48,16637
17:56:44.644,166862,-0.67,0.38,0.60,9.72,16638
17:56:44.645,166872,-0.69,0.50,0.53,9.99,16639
17:56:44.645,166882,-0.74,0.43,0.60,10.44,16640
17:56:44.685,166892,-0.74,0.45,0.54,10.15,16641
17:56:44.685,166902,-0.74,0.49,0.49,10.11,16642
17:56:44.689,166912,-0.74,0.50,0.42,9.87,16643
17:56:44.700,166922,-0.78,0.58,0.35,10.32,16644
17:56:44.701,166932,-0.78,0.51,0.37,10.03,16645
17:56:44.702,166942,-0.78,0.56,0.25,9.96,16646
17:56:44.720,166952,-0.86,0.39,0.18,9.59,16647
17:56:44.723,166962,-0.84,0.30,0.15,9.03,16648
17:56:44.730,166972,-0.92,0.23,0.13,9.56,16649
17:56:44.741,166982,-0.96,0.24,0.02,9.86,16650
17:56:44.750,166992,-0.88,0.20,-0.12,9.10,16651
17:56:44.763,167002,-0.71,0.27,-0.32,8.26,16652
17:56:44.772,167012,-0.52,0.36,-0.52,8.19,16653
17:56:44.781,167022,-0.38,0.52,-0.65,9.12,16654
17:56:44.796,167032,-0.51,0.52,-0.41,8.35,16655
17:56:44.800,167042,-0.66,0.34,-0.12,7.53,16656
17:56:44.813,167052,-0.79,0.16,0.13,8.12,16657
17:56:44.823,167062,-0.89,0.11,0.18,9.19,16658
17:56:44.832,167072,-1.08,0.20,0.37,11.57,16659
17:56:44.839,167082,-2.13,1.29,-0.18,24.94,16660
17:56:44.850,167092,-2.13,1.15,-0.21,24.27,16661
17:56:44.861,167102,-1.44,0.61,-0.10,15.69,16662
17:56:44.869,167112,-0.62,1.08,-0.29,12.80,16663
17:56:44.880,167122,-0.75,1.03,-0.26,13.02,16664
17:56:44.889,167132,-0.95,0.65,0.10,11.51,16665
17:56:44.900,167142,-0.93,0.60,0.57,12.43,16666
17:56:44.910,167152,-0.94,0.80,0.62,13.82,16667
17:56:44.925,167162,-0.79,0.87,0.49,12.73,16668
17:56:44.931,167172,-0.78,0.66,0.22,10.45,16669
17:56:44.941,167182,-0.93,0.34,0.12,9.96,16670
17:56:44.950,167192,-1.10,-0.06,-0.17,11.10,16671
17:56:44.968,167202,-1.12,-0.20,-0.12,11.38,16672
17:56:44.968,167212,-1.11,-0.09,-0.09,11.21,16673
17:56:44.989,167222,-1.03,0.22,-0.07,10.54,16674
17:56:44.989,167232,-0.92,0.57,-0.11,10.86,16675
17:56:45.000,167242,-0.84,0.69,-0.14,10.93,16676
17:56:45.012,167252,-0.91,0.48,-0.05,10.30,16677
17:56:45.027,167262,-1.04,0.29,0.04,10.78,16678
17:56:45.030,167272,-1.11,0.19,0.12,11.28,16679
17:56:45.039,167282,-1.06,0.20,0.15,10.90,16680
17:56:45.049,167292,-0.99,0.29,0.16,10.40,16681
17:56:45.065,167302,-0.93,0.40,0.11,10.16,16682
17:56:45.073,167312,-0.92,0.48,0.07,10.43,16683
17:56:45.082,167322,-0.97,0.47,0.05,10.75,16684
17:56:45.092,167332,-0.98,0.42,0.02,10.64,16685
17:56:45.101,167342,-1.02,0.38,0.00,10.93,16686
17:56:45.110,167352,-0.99,0.34,-0.00,10.42,16687
17:56:45.153,167362,-1.01,0.34,0.00,10.63,16688
17:56:45.153,167372,-0.96,0.40,0.01,10.41,16689
17:56:45.154,167382,-0.96,0.42,0.03,10.50,16690
17:56:45.157,167392,-0.94,0.45,0.00,10.48,16691
17:56:45.193,167402,-0.94,0.45,-0.02,10.46,16692
17:56:45.196,167412,-0.96,0.41,-0.03,10.46,16693
17:56:45.196,167422,-0.98,0.40,-0.01,10.61,16694
17:56:45.197,167432,-0.96,0.45,0.01,10.59,16695
17:56:45.229,167442,-0.93,0.51,0.03,10.59,16696
17:56:45.229,167452,-0.93,0.52,0.04,10.67,16697
17:56:45.231,167462,-0.96,0.49,0.05,10.72,16698
17:56:45.233,167472,-0.97,0.44,0.05,10.65,16699
17:56:45.270,167482,-0.98,0.42,0.05,10.71,16700
17:56:45.274,167492,-0.98,0.43,0.04,10.66,16701
17:56:45.274,167502,-0.97,0.40,0.04,10.52,16702
17:56:45.275,167512,-1.00,0.38,0.07,10.71,16703
17:56:45.315,167522,-1.00,0.42,0.11,10.91,16704
17:56:45.316,167532,-1.00,0.44,0.12,11.04,16705
17:56:45.357,167542,-1.00,0.47,0.11,11.14,16706
17:56:45.359,167552,-1.01,0.48,0.10,11.24,16707
17:56:45.359,167562,-1.02,0.48,0.05,11.24,16708
17:56:45.362,167572,-1.03,0.45,-0.04,11.29,16709
17:56:45.362,167582,-1.07,0.44,-0.08,11.58,16710
17:56:45.362,167592,-1.08,0.42,-0.11,11.65,16711
17:56:45.363,167602,-1.07,0.41,-0.13,11.54,16712
17:56:45.372,167612,-1.07,0.38,-0.12,11.38,16713
17:56:45.380,167622,-1.07,0.38,-0.14,11.45,16714
17:56:45.396,167632,-1.05,0.43,-0.14,11.46,16715
17:56:45.399,167642,-1.04,0.47,-0.18,11.53,16716
17:56:45.410,167652,-1.02,0.47,-0.21,11.46,16717
17:56:45.421,167662,-1.04,0.44,-0.20,11.49,16718
17:56:45.430,167672,-1.07,0.42,-0.19,11.68,16719
17:56:45.445,167682,-1.12,0.44,-0.19,12.17,16720
17:56:45.450,167692,-1.16,0.49,-0.15,12.69,16721
17:56:45.460,167702,-1.16,0.58,-0.20,13.15,16722
17:56:45.471,167712,-1.15,0.58,-0.25,13.10,16723
17:56:45.490,167722,-1.10,0.61,-0.32,13.00,16724
17:56:45.491,167732,-1.07,0.63,-0.37,12.96,16725
17:56:45.501,167742,-1.06,0.63,-0.35,12.85,16726
17:56:45.510,167752,-1.15,0.67,-0.34,13.78,16727
17:56:45.520,167762,-1.20,0.82,-0.60,15.71,16728
17:56:45.530,167772,-1.15,0.94,-0.53,15.78,16729
17:56:45.548,167782,-1.08,0.91,-0.22,14.29,16730
17:56:45.548,167792,-1.02,0.69,-0.06,12.36,16731
17:56:45.564,167802,-1.05,0.52,0.23,11.92,16732
17:56:45.571,167812,-1.08,0.39,0.40,12.16,16733
17:56:45.588,167822,-1.05,0.31,0.86,13.97,16734
17:56:45.590,167832,-1.10,0.25,0.98,14.91,16735
17:56:45.606,167842,-1.23,0.23,0.92,15.54,16736
17:56:45.610,167852,-1.26,0.21,0.94,15.86,16737
17:56:45.620,167862,-1.05,0.26,0.82,13.51,16738
17:56:45.664,167872,-0.77,0.34,0.66,10.69,16739
17:56:45.664,167882,-0.60,0.41,0.48,8.66,16740
17:56:45.665,167892,-0.50,0.41,0.49,8.15,16741
17:56:45.684,167902,-0.56,0.30,0.68,9.27,16742
17:56:45.716,167912,-0.53,0.23,0.70,9.10,16743
17:56:45.717,167922,-0.48,0.35,0.64,8.73,16744
17:56:45.724,167932,-0.58,0.32,0.70,9.62,16745
17:56:45.724,167942,-0.55,0.29,0.70,9.38,16746
17:56:45.724,167952,-0.50,0.25,0.68,8.79,16747
17:56:45.724,167962,-0.47,0.28,0.70,8.88,16748
17:56:45.733,167972,-0.42,0.28,0.66,8.29,16749
17:56:45.740,167982,-0.40,0.28,0.68,8.37,16750
17:56:45.750,167992,-0.42,0.28,0.68,8.49,16751
17:56:45.759,168002,-0.42,0.29,0.69,8.54,16752
17:56:45.770,168012,-0.41,0.30,0.65,8.26,16753
17:56:45.784,168022,-0.39,0.33,0.65,8.29,16754
17:56:45.790,168032,-0.39,0.34,0.66,8.41,16755
17:56:45.800,168042,-0.39,0.35,0.63,8.20,16756
17:56:45.813,168052,-0.42,0.37,0.61,8.25,16757
17:56:45.865,168062,-0.43,0.37,0.65,8.65,16758
17:56:45.867,168072,-0.46,0.38,0.57,8.26,16759
17:56:45.868,168082,-0.49,0.37,0.56,8.33,16760
17:56:45.868,168092,-0.52,0.36,0.57,8.48,16761
17:56:45.869,168102,-0.55,0.34,0.56,8.56,16762
17:56:45.871,168112,-0.59,0.34,0.59,9.02,16763
17:56:45.907,168122,-0.61,0.35,0.60,9.20,16764
17:56:45.909,168132,-0.63,0.35,0.60,9.39,16765
17:56:45.909,168142,-0.62,0.40,0.54,9.16,16766
17:56:45.912,168152,-0.64,0.44,0.54,9.51,16767
17:56:45.945,168162,-0.68,0.48,0.51,9.74,16768
17:56:45.946,168172,-0.72,0.51,0.45,9.93,16769
17:56:45.949,168182,-0.76,0.52,0.41,10.10,16770
17:56:45.950,168192,-0.79,0.53,0.34,10.11,16771
17:56:45.979,168202,-0.79,0.54,0.28,9.94,16772
17:56:45.979,168212,-0.85,0.50,0.19,9.99,16773
17:56:45.981,168222,-0.91,0.33,0.15,9.79,16774
17:56:46.077,168232,-0.89,0.29,0.12,9.44,16775
17:56:46.080,168242,-0.94,0.30,0.14,10.00,16776
17:56:46.081,168252,-0.90,0.29,0.00,9.48,16777
17:56:46.081,168262,-0.82,0.30,-0.11,8.81,16778
17:56:46.084,168272,-0.67,0.34,-0.24,7.87,16779
17:56:46.088,168282,-0.50,0.38,-0.39,7.44,16780
17:56:46.088,168292,-0.38,0.51,-0.55,8.46,16781
17:56:46.091,168302,-0.51,0.37,-0.39,7.43,16782
17:56:46.092,168312,-0.63,0.28,-0.11,6.96,16783
17:56:46.092,168322,-0.71,0.28,0.09,7.70,16784
17:56:46.092,168332,-1.04,0.59,0.25,12.25,16785
17:56:46.100,168342,-2.10,1.48,-0.11,25.66,16786
17:56:46.110,168352,-1.72,0.81,-0.23,19.14,16787
17:56:46.124,168362,-1.00,0.92,0.21,13.69,16788
17:56:46.132,168372,-0.98,1.14,-0.06,15.07,16789
17:56:46.141,168382,-1.15,0.30,0.16,11.98,16790
17:56:46.151,168392,-1.23,0.02,0.48,13.19,16791
17:56:46.162,168402,-1.09,0.30,0.65,13.00,16792
17:56:46.170,168412,-0.85,0.78,0.58,12.88,16793
17:56:46.186,168422,-0.67,1.00,0.40,12.67,16794
17:56:46.189,168432,-0.71,0.68,0.11,9.90,16795
17:56:46.201,168442,-0.91,0.33,-0.02,9.71,16796
17:56:46.213,168452,-1.09,0.08,-0.08,10.98,16797
17:56:46.223,168462,-1.14,-0.08,-0.09,11.46,16798
17:56:46.233,168472,-1.04,0.11,-0.03,10.47,16799
17:56:46.239,168482,-0.90,0.53,-0.07,10.41,16800
17:56:46.251,168492,-0.84,0.79,-0.16,11.67,16801
17:56:46.270,168502,-0.88,0.64,-0.17,10.99,16802
17:56:46.272,168512,-0.99,0.34,-0.08,10.49,16803
17:56:46.282,168522,-1.10,0.20,-0.05,11.15,16804
17:56:46.292,168532,-1.08,0.19,-0.04,10.95,16805
17:56:46.302,168542,-1.00,0.29,-0.07,10.46,16806
17:56:46.312,168552,-0.94,0.41,-0.10,10.32,16807
17:56:46.319,168562,-0.95,0.46,-0.09,10.59,16808
17:56:46.330,168572,-0.97,0.44,-0.05,10.68,16809
17:56:46.348,168582,-0.98,0.38,-0.01,10.56,16810
17:56:46.349,168592,-0.98,0.33,0.07,10.34,16811
17:56:46.362,168602,-0.97,0.38,0.06,10.43,16812
17:56:46.372,168612,-0.95,0.37,0.12,10.23,16813
17:56:46.379,168622,-0.90,0.43,0.10,10.01,16814
17:56:46.397,168632,-0.90,0.44,0.10,10.08,16815
17:56:46.398,168642,-0.93,0.46,0.11,10.44,16816
17:56:46.414,168652,-0.97,0.42,0.12,10.64,16817
17:56:46.419,168662,-1.00,0.38,0.13,10.82,16818
17:56:46.436,168672,-1.00,0.41,0.17,10.96,16819
17:56:46.439,168682,-0.98,0.44,0.19,10.86,16820
17:56:46.450,168692,-0.95,0.48,0.18,10.77,16821
17:56:46.459,168702,-0.96,0.47,0.15,10.79,16822
17:56:46.471,168712,-0.98,0.46,0.12,10.90,16823
17:56:46.486,168722,-1.01,0.41,0.10,10.92,16824
17:56:46.490,168732,-1.01,0.38,0.09,10.83,16825
17:56:46.500,168742,-1.00,0.40,0.07,10.81,16826
17:56:46.509,168752,-1.02,0.39,0.03,10.90,16827
17:56:46.521,168762,-1.01,0.42,-0.00,10.91,16828
17:56:46.532,168772,-1.00,0.46,-0.03,11.03,16829
17:56:46.541,168782,-0.99,0.49,-0.06,11.05,16830
17:56:46.549,168792,-0.99,0.49,-0.07,11.03,16831
17:56:46.560,168802,-1.02,0.44,-0.07,11.11,16832
17:56:46.611,168812,-1.03,0.44,-0.04,11.23,16833
17:56:46.612,168822,-1.06,0.41,-0.03,11.39,16834
17:56:46.613,168832,-1.08,0.42,-0.02,11.59,16835
17:56:46.615,168842,-1.06,0.44,-0.03,11.50,16836
17:56:46.616,168852,-1.06,0.44,-0.06,11.48,16837
17:56:46.652,168862,-1.04,0.41,-0.11,11.28,16838
17:56:46.653,168872,-1.03,0.39,-0.14,11.08,16839
17:56:46.655,168882,-0.99,0.39,-0.16,10.79,16840
17:56:46.656,168892,-0.96,0.41,-0.18,10.59,16841
17:56:46.694,168902,-0.94,0.43,-0.20,10.55,16842
17:56:46.694,168912,-0.95,0.44,-0.24,10.77,16843
17:56:46.696,168922,-1.00,0.46,-0.23,11.21,16844
17:56:46.697,168932,-1.06,0.56,-0.24,12.20,16845
17:56:46.701,168942,-1.07,0.67,-0.27,12.93,16846
17:56:46.735,168952,-1.08,0.67,-0.33,13.14,16847
17:56:46.735,168962,-1.09,0.66,-0.38,13.32,16848
17:56:46.737,168972,-1.10,0.67,-0.41,13.52,16849
17:56:46.739,168982,-1.18,0.64,-0.31,13.78,16850
17:56:46.773,168992,-1.32,0.72,-0.30,15.31,16851
17:56:46.774,169002,-1.33,0.81,-0.46,16.28,16852
17:56:46.777,169012,-1.28,0.79,-0.38,15.55,16853
17:56:46.799,169022,-1.19,0.63,-0.14,13.56,16854
17:56:46.799,169032,-1.12,0.37,0.18,11.97,16855
17:56:46.800,169042,-1.18,0.34,0.37,12.77,16856
17:56:46.810,169052,-1.18,0.33,0.54,13.45,16857
17:56:46.823,169062,-1.05,0.26,0.87,13.90,16858
17:56:46.832,169072,-1.06,0.28,0.85,13.86,16859
17:56:46.842,169082,-1.15,0.31,1.11,16.32,16860
17:56:46.849,169092,-1.10,0.35,1.04,15.53,16861
17:56:46.859,169102,-0.85,0.43,0.78,12.32,16862
17:56:46.876,169112,-0.61,0.55,0.71,10.82,16863
17:56:46.880,169122,-0.45,0.66,0.59,9.93,16864
17:56:46.891,169132,-0.47,0.50,0.60,9.15,16865
17:56:46.901,169142,-0.53,0.27,0.62,8.60,16866
17:56:46.916,169152,-0.49,0.17,0.65,8.31,16867
17:56:46.920,169162,-0.60,0.20,0.66,9.11,16868
17:56:46.936,169172,-0.56,0.23,0.73,9.48,16869
17:56:46.940,169182,-0.50,0.27,0.66,8.69,16870
17:56:46.951,169192,-0.45,0.26,0.68,8.55,16871
17:56:46.991,169202,-0.42,0.28,0.67,8.42,16872
17:56:46.992,169212,-0.41,0.30,0.65,8.29,16873
17:56:46.992,169222,-0.38,0.26,0.67,8.10,16874
17:56:47.035,169232,-0.36,0.26,0.70,8.26,16875
17:56:47.036,169242,-0.35,0.28,0.68,8.16,16876
17:56:47.036,169252,-0.36,0.31,0.63,7.90,16877
17:56:47.038,169262,-0.29,0.20,0.59,6.86,16878
17:56:47.040,169272,-0.41,0.38,0.59,8.15,16879
17:56:47.042,169282,-0.40,0.38,0.56,7.86,16880
17:56:47.052,169292,-0.42,0.41,0.59,8.33,16881
17:56:47.060,169302,-0.46,0.42,0.56,8.43,16882
17:56:47.075,169312,-0.49,0.41,0.56,8.50,16883
17:56:47.080,169322,-0.55,0.40,0.55,8.79,16884
17:56:47.097,169332,-0.61,0.36,0.54,8.92,16885
17:56:47.098,169342,-0.67,0.33,0.55,9.28,16886
17:56:47.117,169352,-0.71,0.32,0.58,9.68,16887
17:56:47.118,169362,-0.74,0.37,0.56,9.96,16888
17:56:47.130,169372,-0.75,0.41,0.53,10.03,16889
17:56:47.144,169382,-0.72,0.45,0.46,9.65,16890
17:56:47.152,169392,-0.73,0.47,0.40,9.57,16891
17:56:47.162,169402,-0.75,0.48,0.37,9.63,16892
17:56:47.172,169412,-0.78,0.47,0.33,9.67,16893
17:56:47.179,169422,-0.82,0.47,0.32,9.94,16894
17:56:47.192,169432,-0.78,0.41,0.20,9.05,16895
17:56:47.225,169442,-0.81,0.45,0.23,9.57,16896
17:56:47.225,169452,-0.85,0.42,0.17,9.61,16897
17:56:47.226,169462,-0.88,0.34,0.13,9.54,16898
17:56:47.229,169472,-0.90,0.28,0.08,9.47,16899
17:56:47.246,169482,-0.87,0.24,-0.02,9.07,16900
17:56:47.251,169492,-0.78,0.28,-0.16,8.39,16901
17:56:47.261,169502,-0.64,0.37,-0.35,8.14,16902
17:56:47.270,169512,-0.48,0.44,-0.58,8.67,16903
17:56:47.282,169522,-0.45,0.39,-0.57,8.23,16904
17:56:47.292,169532,-0.67,0.25,-0.26,7.61,16905
17:56:47.304,169542,-0.80,0.10,0.00,8.09,16906
17:56:47.382,169552,-0.82,0.05,0.19,8.40,16907
17:56:47.383,169562,-0.78,0.08,0.29,8.37,16908
17:56:47.385,169572,-1.08,0.50,0.24,12.16,16909
17:56:47.385,169582,-2.13,1.99,-0.01,29.10,16910
17:56:47.386,169592,-1.88,1.47,-0.61,24.62,16911
17:56:47.386,169602,-0.71,0.82,-0.15,10.95,16912
17:56:47.422,169612,-0.65,0.88,-0.37,11.62,16913
17:56:47.424,169622,-1.08,0.38,0.12,11.52,16914
17:56:47.425,169632,-1.14,0.29,0.56,13.03,16915
17:56:47.425,169642,-1.08,0.47,0.92,14.96,16916
17:56:47.426,169652,-0.85,0.89,0.64,13.90,16917
17:56:47.426,169662,-0.70,1.05,0.49,13.53,16918
17:56:47.465,169672,-0.79,0.65,0.12,10.33,16919
17:56:47.465,169682,-0.93,0.31,-0.08,9.85,16920
17:56:47.466,169692,-1.11,-0.11,-0.17,11.31,16921
17:56:47.468,169702,-1.17,-0.27,-0.12,12.04,16922
17:56:47.469,169712,-1.10,0.05,-0.19,11.20,16923
17:56:47.505,169722,-1.02,0.38,-0.10,10.97,16924
17:56:47.505,169732,-0.96,0.56,-0.18,11.22,16925
17:56:47.507,169742,-0.91,0.49,-0.18,10.48,16926
17:56:47.509,169752,-0.99,0.35,-0.09,10.54,16927
17:56:47.537,169762,-1.05,0.32,-0.03,10.95,16928
17:56:47.538,169772,-1.03,0.27,-0.03,10.65,16929
17:56:47.540,169782,-1.00,0.33,-0.04,10.56,16930
17:56:47.569,169792,-0.98,0.36,-0.05,10.44,16931
17:56:47.570,169802,-0.97,0.43,-0.08,10.65,16932
17:56:47.570,169812,-0.97,0.46,-0.08,10.81,16933
17:56:47.581,169822,-0.99,0.43,-0.07,10.86,16934
17:56:47.590,169832,-0.98,0.41,-0.05,10.61,16935
17:56:47.600,169842,-0.97,0.39,-0.05,10.53,16936
17:56:47.615,169852,-0.98,0.37,-0.02,10.42,16937
17:56:47.620,169862,-0.95,0.37,-0.00,10.25,16938
17:56:47.634,169872,-0.92,0.41,0.02,10.11,16939
17:56:47.642,169882,-0.92,0.46,0.03,10.31,16940
17:56:47.651,169892,-0.92,0.49,0.04,10.43,16941
17:56:47.660,169902,-0.91,0.49,0.06,10.34,16942
17:56:47.676,169912,-0.94,0.44,0.07,10.37,16943
17:56:47.680,169922,-0.96,0.43,0.10,10.56,16944
17:56:47.693,169932,-0.98,0.42,0.15,10.76,16945
17:56:47.703,169942,-0.98,0.46,0.17,10.95,16946
17:56:47.711,169952,-0.98,0.46,0.19,10.97,16947
17:56:47.719,169962,-0.98,0.46,0.19,10.94,16948
17:56:47.731,169972,-0.99,0.43,0.18,10.91,16949
17:56:47.740,169982,-1.00,0.38,0.13,10.80,16950
17:56:47.757,169992,-1.00,0.36,0.10,10.65,16951
17:56:47.760,170002,-1.00,0.35,0.07,10.60,16952
17:56:47.770,170012,-1.02,0.39,0.04,10.91,16953
17:56:47.781,170022,-1.01,0.44,0.01,11.04,16954
17:56:47.794,170032,-1.00,0.48,0.01,11.05,16955
17:56:47.799,170042,-0.99,0.47,0.03,10.96,16956
17:56:47.810,170052,-1.00,0.46,0.04,11.00,16957
17:56:47.822,170062,-1.01,0.45,0.04,11.01,16958
17:56:47.832,170072,-1.01,0.43,0.05,10.95,16959
17:56:47.840,170082,-1.01,0.41,0.02,10.92,16960
17:56:47.850,170092,-1.03,0.38,0.00,11.03,16961
17:56:47.868,170102,-1.02,0.37,-0.04,10.89,16962
17:56:47.868,170112,-1.02,0.37,-0.06,10.90,16963
17:56:47.890,170122,-1.00,0.42,-0.12,10.88,16964
17:56:47.892,170132,-0.97,0.45,-0.14,10.80,16965
17:56:47.902,170142,-0.94,0.47,-0.18,10.63,16966
17:56:47.917,170152,-0.92,0.46,-0.20,10.49,16967
17:56:47.921,170162,-0.92,0.42,-0.23,10.40,16968
17:56:47.937,170172,-0.95,0.39,-0.25,10.60,16969
17:56:47.938,170182,-1.05,0.42,-0.21,11.47,16970
17:56:47.958,170192,-1.10,0.55,-0.15,12.38,16971
17:56:47.960,170202,-1.10,0.64,-0.13,12.78,16972
17:56:47.976,170212,-1.12,0.65,-0.16,12.99,16973
17:56:47.979,170222,-1.09,0.70,-0.18,13.07,16974
17:56:47.989,170232,-1.09,0.72,-0.16,13.16,16975
17:56:48.001,170242,-1.17,0.76,-0.12,14.02,16976
17:56:48.019,170252,-1.23,0.94,-0.33,15.85,16977
17:56:48.021,170262,-1.27,1.05,-0.54,17.30,16978
17:56:48.029,170272,-1.25,0.84,-0.52,15.93,16979
17:56:48.048,170282,-1.25,0.54,-0.27,13.88,16980
17:56:48.049,170292,-1.21,0.32,-0.06,12.57,16981
17:56:48.064,170302,-1.23,0.12,0.35,12.86,16982
17:56:48.069,170312,-1.31,0.02,0.42,13.81,16983
17:56:48.079,170322,-1.08,0.11,0.85,13.76,16984
17:56:48.090,170332,-1.09,0.15,1.03,15.10,16985
17:56:48.148,170342,-1.19,0.22,1.02,15.78,16986
17:56:48.149,170352,-1.13,0.30,1.04,15.68,16987
17:56:48.150,170362,-0.83,0.38,0.93,13.07,16988
17:56:48.151,170372,-0.58,0.49,0.70,10.32,16989
17:56:48.152,170382,-0.39,0.71,0.60,10.06,16990
17:56:48.154,170392,-0.25,0.73,0.58,9.68,16991
17:56:48.190,170402,-0.38,0.43,0.66,8.78,16992
17:56:48.190,170412,-0.50,0.19,0.62,8.19,16993
17:56:48.192,170422,-0.52,0.25,0.61,8.40,16994
17:56:48.193,170432,-0.54,0.28,0.67,9.04,16995
17:56:48.231,170442,-0.57,0.25,0.62,8.77,16996
17:56:48.232,170452,-0.53,0.17,0.68,8.78,16997
17:56:48.233,170462,-0.49,0.17,0.67,8.49,16998
17:56:48.235,170472,-0.49,0.17,0.65,8.30,16999
17:56:48.272,170482,-0.46,0.17,0.66,8.22,17000
17:56:48.273,170492,-0.43,0.18,0.67,8.18,17001
17:56:48.275,170502,-0.40,0.24,0.69,8.35,17002
17:56:48.276,170512,-0.35,0.31,0.69,8.31,17003
17:56:48.313,170522,-0.34,0.36,0.69,8.49,17004
17:56:48.350,170532,-0.34,0.39,0.62,8.09,17005
17:56:48.352,170542,-0.38,0.39,0.61,8.20,17006
17:56:48.352,170552,-0.40,0.38,0.61,8.17,17007
17:56:48.354,170562,-0.45,0.33,0.58,8.08,17008
17:56:48.355,170572,-0.50,0.31,0.59,8.32,17009
17:56:48.355,170582,-0.56,0.30,0.61,8.82,17010
17:56:48.357,170592,-0.59,0.30,0.59,8.85,17011
17:56:48.360,170602,-0.60,0.31,0.62,9.14,17012
17:56:48.377,170612,-0.60,0.33,0.60,9.11,17013
17:56:48.378,170622,-0.59,0.38,0.62,9.41,17014
17:56:48.396,170632,-0.61,0.41,0.54,9.14,17015
17:56:48.400,170642,-0.65,0.46,0.59,9.91,17016
17:56:48.410,170652,-0.70,0.48,0.56,10.17,17017
17:56:48.420,170662,-0.76,0.47,0.51,10.27,17018
17:56:48.432,170672,-0.80,0.46,0.44,10.27,17019
17:56:48.439,170682,-0.84,0.46,0.36,10.27,17020
17:56:48.454,170692,-0.85,0.46,0.30,10.11,17021
17:56:48.459,170702,-0.83,0.48,0.24,9.84,17022
17:56:48.470,170712,-0.85,0.48,0.16,9.90,17023
17:56:48.480,170722,-0.86,0.40,0.12,9.57,17024
17:56:48.503,170732,-0.89,0.35,0.13,9.65,17025
17:56:48.504,170742,-0.92,0.31,0.09,9.77,17026
17:56:48.510,170752,-0.91,0.26,-0.05,9.51,17027
17:56:48.520,170762,-0.76,0.24,-0.21,8.19,17028
17:56:48.531,170772,-0.51,0.34,-0.53,8.12,17029
17:56:48.546,170782,-0.36,0.37,-0.81,9.63,17030
17:56:48.549,170792,-0.54,0.41,-0.61,9.13,17031
17:56:48.564,170802,-0.71,0.26,-0.30,8.16,17032
17:56:48.570,170812,-0.88,0.04,-0.01,8.77,17033
17:56:48.586,170822,-0.90,-0.02,0.16,9.11,17034
17:56:48.590,170832,-0.82,-0.04,0.31,8.82,17035
17:56:48.601,170842,-0.77,0.07,0.35,8.51,17036
17:56:48.612,170852,-1.29,0.89,0.21,15.83,17037
17:56:48.621,170862,-2.13,2.00,-0.00,29.15,17038
17:56:48.632,170872,-1.80,1.86,-0.62,26.57,17039
17:56:48.705,170882,-0.58,0.26,-0.20,6.66,17040
17:56:48.705,170892,-0.67,0.35,-0.39,8.51,17041
17:56:48.706,170902,-0.97,0.33,0.08,10.32,17042
17:56:48.707,170912,-1.01,0.71,0.49,13.27,17043
17:56:48.710,170922,-0.98,0.82,1.01,16.30,17044
17:56:48.711,170932,-0.76,1.20,0.67,15.70,17045
17:56:48.712,170942,-0.58,1.29,0.38,14.69,17046
17:56:48.713,170952,-0.71,0.79,0.16,10.74,17047
17:56:48.722,170962,-0.91,0.26,-0.02,9.50,17048
17:56:48.731,170972,-1.10,-0.20,-0.20,11.32,17049
17:56:48.741,170982,-1.24,-0.36,-0.03,12.92,17050
17:56:48.783,170992,-1.27,-0.26,-0.02,12.92,17051
17:56:48.783,171002,-1.07,0.31,-0.05,11.18,17052
17:56:48.784,171012,-0.92,0.58,-0.17,11.04,17053
17:56:48.786,171022,-0.84,0.52,-0.12,9.97,17054
17:56:48.824,171032,-0.92,0.42,-0.08,10.16,17055
17:56:48.824,171042,-1.04,0.35,0.01,11.00,17056
17:56:48.825,171052,-1.05,0.28,0.03,10.83,17057
17:56:48.827,171062,-1.00,0.27,0.00,10.37,17058
17:56:48.829,171072,-1.01,0.27,-0.02,10.50,17059
17:56:48.865,171082,-1.02,0.33,-0.04,10.72,17060
17:56:48.865,171092,-1.02,0.38,-0.06,10.89,17061
17:56:48.867,171102,-1.00,0.40,-0.07,10.79,17062
17:56:48.868,171112,-1.00,0.38,-0.05,10.69,17063
17:56:48.906,171122,-1.01,0.34,-0.04,10.70,17064
17:56:48.906,171132,-1.00,0.34,-0.01,10.53,17065
17:56:48.907,171142,-0.96,0.37,0.01,10.34,17066
17:56:48.909,171152,-0.94,0.43,0.05,10.37,17067
17:56:48.947,171162,-0.91,0.48,0.06,10.26,17068
17:56:48.948,171172,-0.89,0.49,0.05,10.16,17069
17:56:48.949,171182,-0.92,0.45,0.04,10.28,17070
17:56:48.950,171192,-0.97,0.42,0.08,10.60,17071
17:56:48.974,171202,-0.97,0.40,0.11,10.58,17072
17:56:48.974,171212,-0.97,0.40,0.14,10.55,17073
17:56:48.981,171222,-0.97,0.42,0.15,10.65,17074
17:56:48.996,171232,-0.96,0.45,0.16,10.67,17075
17:56:49.000,171242,-0.96,0.45,0.14,10.66,17076
17:56:49.016,171252,-0.97,0.42,0.13,10.63,17077
17:56:49.020,171262,-0.96,0.39,0.11,10.42,17078
17:56:49.029,171272,-0.96,0.40,0.10,10.44,17079
17:56:49.047,171282,-0.99,0.39,0.09,10.65,17080
17:56:49.048,171292,-1.00,0.41,0.09,10.84,17081
17:56:49.060,171302,-1.01,0.44,0.07,11.09,17082
17:56:49.077,171312,-1.02,0.43,0.09,11.11,17083
17:56:49.078,171322,-1.00,0.44,0.08,10.96,17084
17:56:49.089,171332,-1.01,0.44,0.09,11.06,17085
17:56:49.099,171342,-1.01,0.43,0.08,10.97,17086
17:56:49.115,171352,-1.06,0.38,0.05,11.24,17087
17:56:49.121,171362,-1.07,0.39,0.02,11.42,17088
17:56:49.131,171372,-1.06,0.43,-0.03,11.41,17089
17:56:49.140,171382,-1.02,0.41,-0.08,11.06,17090
17:56:49.152,171392,-1.02,0.39,-0.11,11.00,17091
17:56:49.160,171402,-1.03,0.40,-0.14,11.13,17092
17:56:49.171,171412,-1.03,0.42,-0.16,11.23,17093
17:56:49.179,171422,-1.00,0.47,-0.18,11.22,17094
17:56:49.192,171432,-0.97,0.49,-0.22,11.09,17095
17:56:49.199,171442,-0.99,0.48,-0.25,11.29,17096
17:56:49.216,171452,-1.06,0.47,-0.24,11.83,17097
17:56:49.221,171462,-1.14,0.52,-0.21,12.75,17098
17:56:49.233,171472,-1.11,0.66,-0.20,13.08,17099
17:56:49.240,171482,-1.09,0.67,-0.24,12.97,17100
17:56:49.248,171492,-1.06,0.66,-0.26,12.79,17101
17:56:49.259,171502,-1.10,0.67,-0.27,13.13,17102
17:56:49.273,171512,-1.15,0.70,-0.22,13.70,17103
17:56:49.280,171522,-1.21,0.82,-0.25,14.85,17104
17:56:49.290,171532,-1.23,0.90,-0.51,16.07,17105
17:56:49.299,171542,-1.22,0.86,-0.56,15.94,17106
17:56:49.314,171552,-1.16,0.70,-0.41,14.18,17107
17:56:49.320,171562,-1.10,0.53,-0.15,12.28,17108
17:56:49.329,171572,-1.12,0.37,0.06,11.81,17109
17:56:49.344,171582,-1.18,0.23,0.45,12.87,17110
17:56:49.353,171592,-1.10,0.19,0.61,12.72,17111
17:56:49.360,171602,-1.09,0.14,0.89,14.09,17112
17:56:49.372,171612,-1.18,0.16,0.92,15.03,17113
17:56:49.382,171622,-1.21,0.21,0.89,15.19,17114
17:56:49.390,171632,-0.96,0.32,0.83,13.09,17115
17:56:49.399,171642,-0.75,0.47,0.67,11.11,17116
17:56:49.416,171652,-0.55,0.61,0.64,10.38,17117
17:56:49.420,171662,-0.43,0.61,0.57,9.37,17118
17:56:49.432,171672,-0.54,0.41,0.62,9.19,17119
17:56:49.447,171682,-0.55,0.18,0.63,8.53,17120
17:56:49.450,171692,-0.63,0.13,0.69,9.43,17121
17:56:49.467,171702,-0.61,0.18,0.71,9.53,17122
17:56:49.476,171712,-0.51,0.27,0.65,8.69,17123
17:56:49.481,171722,-0.48,0.26,0.65,8.49,17124
17:56:49.518,171732,-0.50,0.20,0.68,8.68,17125
17:56:49.519,171742,-0.49,0.18,0.65,8.32,17126
17:56:49.520,171752,-0.48,0.20,0.64,8.26,17127
17:56:49.522,171762,-0.47,0.19,0.66,8.32,17128
17:56:49.557,171772,-0.46,0.21,0.68,8.48,17129
17:56:49.557,171782,-0.41,0.24,0.68,8.32,17130
17:56:49.559,171792,-0.40,0.25,0.68,8.25,17131
17:56:49.560,171802,-0.40,0.32,0.67,8.41,17132
17:56:49.599,171812,-0.42,0.36,0.61,8.23,17133
17:56:49.600,171822,-0.44,0.37,0.59,8.27,17134
17:56:49.601,171832,-0.47,0.37,0.59,8.38,17135
17:56:49.641,171842,-0.51,0.38,0.60,8.73,17136
17:56:49.724,171852,-0.55,0.39,0.59,8.94,17137
17:56:49.724,171862,-0.58,0.38,0.59,9.05,17138
17:56:49.725,171872,-0.60,0.36,0.58,9.14,17139
17:56:49.727,171882,-0.63,0.35,0.60,9.36,17140
17:56:49.728,171892,-0.63,0.40,0.55,9.33,17141
17:56:49.730,171902,-0.69,0.40,0.55,9.70,17142
17:56:49.730,171912,-0.70,0.41,0.55,9.83,17143
17:56:49.731,171922,-0.71,0.40,0.51,9.64,17144
17:56:49.734,171932,-0.76,0.45,0.47,9.94,17145
17:56:49.739,171942,-0.81,0.48,0.41,10.26,17146
17:56:49.739,171952,-0.82,0.50,0.32,10.12,17147
17:56:49.739,171962,-0.82,0.45,0.26,9.73,17148
17:56:49.739,171972,-0.85,0.39,0.21,9.62,17149
17:56:49.739,171982,-0.92,0.31,0.16,9.85,17150
17:56:49.754,171992,-0.95,0.31,0.12,10.03,17151
17:56:49.784,172002,-0.98,0.30,0.10,10.28,17152
17:56:49.786,172012,-0.95,0.30,0.03,9.99,17153
17:56:49.786,172022,-0.83,0.31,-0.11,8.97,17154
17:56:49.788,172032,-0.64,0.36,-0.30,7.95,17155
17:56:49.802,172042,-0.45,0.42,-0.53,8.12,17156
17:56:49.811,172052,-0.36,0.50,-0.69,9.23,17157
17:56:49.823,172062,-0.50,0.38,-0.44,7.67,17158
17:56:49.831,172072,-0.65,0.24,-0.14,7.08,17159
17:56:49.839,172082,-0.74,0.16,0.08,7.64,17160
17:56:49.854,172092,-0.87,0.27,0.23,9.36,17161
17:56:49.859,172102,-1.93,1.12,0.06,22.31,17162
17:56:49.873,172112,-2.04,1.17,-0.05,23.56,17163
17:56:49.882,172122,-1.46,0.75,0.12,16.45,17164
17:56:49.893,172132,-0.92,1.06,0.09,14.07,17165
17:56:49.903,172142,-0.91,0.84,0.03,12.37,17166
17:56:49.912,172152,-0.86,0.48,0.30,10.34,17167
17:56:49.919,172162,-0.90,0.65,0.67,12.94,17168
17:56:49.930,172172,-0.82,0.87,0.58,13.32,17169
17:56:49.939,172182,-0.66,1.09,0.42,13.41,17170
17:56:49.957,172192,-0.78,0.65,0.25,10.45,17171
17:56:49.959,172202,-0.89,0.31,0.06,9.48,17172
17:56:50.002,172212,-1.02,-0.10,-0.12,10.34,17173
17:56:50.002,172222,-1.16,-0.34,0.07,12.08,17174
17:56:50.003,172232,-1.24,-0.32,0.03,12.84,17175
17:56:50.005,172242,-1.10,0.18,-0.02,11.12,17176
17:56:50.013,172252,-0.95,0.55,-0.05,10.96,17177
17:56:50.022,172262,-0.78,0.68,-0.03,10.34,17178
17:56:50.031,172272,-0.82,0.63,0.01,10.34,17179
17:56:50.048,172282,-0.98,0.42,0.09,10.73,17180
17:56:50.049,172292,-1.04,0.29,0.12,10.83,17181
17:56:50.059,172302,-1.04,0.23,0.12,10.71,17182
17:56:50.068,172312,-1.02,0.24,0.09,10.52,17183
17:56:50.086,172322,-1.01,0.34,0.08,10.63,17184
17:56:50.089,172332,-0.99,0.40,0.05,10.69,17185
17:56:50.102,172342,-1.02,0.38,0.05,10.87,17186
17:56:50.114,172352,-1.02,0.28,0.04,10.59,17187
17:56:50.120,172362,-1.05,0.26,0.06,10.79,17188
17:56:50.131,172372,-1.03,0.29,0.02,10.70,17189
17:56:50.149,172382,-0.99,0.35,0.01,10.54,17190
17:56:50.151,172392,-0.96,0.44,0.01,10.61,17191
17:56:50.163,172402,-0.93,0.49,-0.00,10.54,17192
17:56:50.171,172412,-0.93,0.49,0.01,10.55,17193
17:56:50.181,172422,-0.95,0.47,0.02,10.57,17194
17:56:50.190,172432,-0.96,0.44,0.04,10.52,17195
17:56:50.207,172442,-0.97,0.37,0.05,10.38,17196
17:56:50.208,172452,-0.97,0.40,0.08,10.51,17197
17:56:50.219,172462,-0.98,0.41,0.11,10.67,17198
17:56:50.231,172472,-0.99,0.46,0.11,10.97,17199
17:56:50.240,172482,-0.97,0.42,0.12,10.60,17200
17:56:50.248,172492,-0.99,0.42,0.13,10.86,17201
17:56:50.258,172502,-0.96,0.40,0.12,10.45,17202
17:56:50.276,172512,-0.96,0.41,0.13,10.55,17203
17:56:50.282,172522,-0.95,0.41,0.11,10.38,17204
17:56:50.290,172532,-0.98,0.41,0.08,10.62,17205
17:56:50.299,172542,-1.00,0.42,0.07,10.86,17206
17:56:50.338,172552,-0.98,0.43,0.07,10.74,17207
17:56:50.339,172562,-0.95,0.45,0.06,10.53,17208
17:56:50.340,172572,-0.96,0.45,0.07,10.59,17209
17:56:50.341,172582,-0.97,0.44,0.10,10.73,17210
17:56:50.381,172592,-1.00,0.44,0.11,10.95,17211
17:56:50.381,172602,-1.01,0.41,0.11,10.93,17212
17:56:50.383,172612,-1.03,0.37,0.07,11.01,17213
17:56:50.384,172622,-1.05,0.38,0.04,11.18,17214
17:56:50.421,172632,-1.05,0.37,0.00,11.14,17215
17:56:50.423,172642,-1.05,0.39,-0.04,11.20,17216
17:56:50.423,172652,-1.04,0.37,-0.08,11.06,17217
17:56:50.424,172662,-1.03,0.38,-0.08,11.01,17218
17:56:50.462,172672,-1.03,0.40,-0.10,11.13,17219
17:56:50.463,172682,-1.01,0.43,-0.10,11.05,17220
17:56:50.465,172692,-0.96,0.47,-0.12,10.74,17221
17:56:50.467,172702,-0.94,0.47,-0.13,10.58,17222
17:56:50.468,172712,-0.94,0.47,-0.13,10.64,17223
17:56:50.504,172722,-1.00,0.47,-0.14,11.11,17224
17:56:50.504,172732,-1.07,0.49,-0.17,11.85,17225
17:56:50.505,172742,-1.12,0.53,-0.21,12.57,17226
17:56:50.530,172752,-1.13,0.59,-0.29,13.03,17227
17:56:50.531,172762,-1.09,0.65,-0.35,13.18,17228
17:56:50.532,172772,-1.04,0.71,-0.42,13.26,17229
17:56:50.540,172782,-1.01,0.74,-0.46,13.36,17230
17:56:50.550,172792,-1.05,0.72,-0.37,13.25,17231
17:56:50.560,172802,-1.21,0.72,-0.36,14.55,17232
17:56:50.571,172812,-1.32,0.80,-0.50,16.29,17233
17:56:50.579,172822,-1.35,0.77,-0.52,16.37,17234
17:56:50.627,172832,-1.31,0.55,-0.30,14.56,17235
17:56:50.628,172842,-1.28,0.42,-0.09,13.51,17236
17:56:50.628,172852,-1.30,0.26,0.22,13.40,17237
17:56:50.629,172862,-1.16,0.28,0.41,12.61,17238
17:56:50.631,172872,-1.14,0.20,0.93,14.84,17239
17:56:50.646,172882,-1.17,0.26,0.90,15.01,17240
17:56:50.650,172892,-1.24,0.31,0.88,15.52,17241
17:56:50.668,172902,-1.07,0.33,1.12,15.88,17242
17:56:50.670,172912,-0.81,0.43,0.95,13.17,17243
17:56:50.685,172922,-0.58,0.55,0.75,10.98,17244
17:56:50.694,172932,-0.45,0.70,0.67,10.68,17245
17:56:50.712,172942,-0.39,0.60,0.69,9.97,17246
17:56:50.713,172952,-0.49,0.35,0.63,8.72,17247
17:56:50.720,172962,-0.54,0.14,0.62,8.34,17248
17:56:50.729,172972,-0.51,0.09,0.76,9.23,17249
17:56:50.739,172982,-0.53,0.15,0.70,8.92,17250
17:56:50.750,172992,-0.51,0.23,0.59,8.13,17251
17:56:50.759,173002,-0.45,0.22,0.63,8.08,17252
17:56:50.775,173012,-0.44,0.17,0.65,8.00,17253
17:56:50.781,173022,-0.48,0.12,0.70,8.57,17254
17:56:50.791,173032,-0.44,0.17,0.69,8.36,17255
17:56:50.803,173042,-0.43,0.17,0.67,8.11,17256
17:56:50.809,173052,-0.42,0.21,0.68,8.23,17257
17:56:50.826,173062,-0.39,0.23,0.68,8.14,17258
17:56:50.832,173072,-0.38,0.26,0.71,8.50,17259
17:56:50.840,173082,-0.37,0.30,0.68,8.32,17260
17:56:50.854,173092,-0.37,0.35,0.62,8.03,17261
17:56:50.858,173102,-0.36,0.35,0.60,7.87,17262
17:56:50.870,173112,-0.38,0.36,0.62,8.09,17263
17:56:50.889,173122,-0.42,0.37,0.64,8.53,17264
17:56:50.891,173132,-0.49,0.41,0.61,8.81,17265
17:56:50.900,173142,-0.52,0.42,0.58,8.83,17266
17:56:50.909,173152,-0.55,0.38,0.62,9.08,17267
17:56:50.919,173162,-0.58,0.37,0.64,9.38,17268
17:56:50.933,173172,-0.60,0.37,0.58,9.15,17269
17:56:50.941,173182,-0.66,0.39,0.60,9.80,17270
17:56:50.948,173192,-0.70,0.39,0.61,10.05,17271
17:56:51.020,173202,-0.70,0.40,0.54,9.70,17272
17:56:51.021,173212,-0.72,0.42,0.46,9.48,17273
17:56:51.023,173222,-0.76,0.42,0.38,9.48,17274
17:56:51.023,173232,-0.81,0.39,0.32,9.55,17275
17:56:51.054,173242,-0.81,0.33,0.22,9.03,17276
17:56:51.054,173252,-0.88,0.34,0.22,9.69,17277
17:56:51.055,173262,-0.92,0.35,0.18,10.04,17278
17:56:51.058,173272,-0.89,0.35,0.13,9.70,17279
17:56:51.059,173282,-0.87,0.34,0.12,9.41,17280
17:56:51.059,173292,-0.89,0.28,0.08,9.31,17281
17:56:51.096,173302,-0.83,0.23,-0.04,8.65,17282
17:56:51.096,173312,-0.70,0.28,-0.17,7.68,17283
17:56:51.097,173322,-0.52,0.38,-0.35,7.36,17284
17:56:51.099,173332,-0.45,0.50,-0.51,8.41,17285
17:56:51.099,173342,-0.51,0.45,-0.38,7.74,17286
17:56:51.137,173352,-0.67,0.29,-0.13,7.46,17287
17:56:51.138,173362,-0.75,0.18,0.06,7.77,17288
17:56:51.138,173372,-0.85,0.25,0.19,9.07,17289
17:56:51.140,173382,-1.67,1.01,0.06,19.55,17290
17:56:51.168,173392,-1.99,1.56,-0.03,25.30,17291
17:56:51.170,173402,-1.57,0.97,-0.27,18.65,17292
17:56:51.171,173412,-0.62,1.02,-0.05,11.98,17293
17:56:51.210,173422,-0.89,0.90,-0.22,12.83,17294
17:56:51.210,173432,-1.13,0.30,0.04,11.70,17295
17:56:51.213,173442,-1.16,0.12,0.33,12.07,17296
17:56:51.213,173452,-1.09,0.11,0.51,12.06,17297
17:56:51.234,173462,-0.89,0.51,0.39,10.96,17298
17:56:51.236,173472,-0.79,0.87,0.33,12.17,17299
17:56:51.240,173482,-0.78,0.74,0.02,10.79,17300
17:56:51.250,173492,-0.77,0.44,-0.07,8.89,17301
17:56:51.259,173502,-0.86,0.16,0.04,8.75,17302
17:56:51.268,173512,-1.09,-0.09,0.21,11.18,17303
17:56:51.365,173522,-1.20,-0.08,0.17,12.12,17304
17:56:51.367,173532,-1.08,0.35,0.16,11.45,17305
17:56:51.367,173542,-0.91,0.61,0.09,10.99,17306
17:56:51.368,173552,-0.80,0.68,0.04,10.52,17307
17:56:51.370,173562,-0.92,0.52,0.09,10.62,17308
17:56:51.371,173572,-1.04,0.33,0.16,11.05,17309
17:56:51.375,173582,-1.11,0.19,0.19,11.38,17310
17:56:51.377,173592,-1.08,0.16,0.16,11.07,17311
17:56:51.377,173602,-1.02,0.28,0.12,10.61,17312
17:56:51.377,173612,-0.99,0.41,0.07,10.76,17313
17:56:51.380,173622,-1.00,0.44,0.00,10.96,17314
17:56:51.397,173632,-1.00,0.43,-0.06,10.87,17315
17:56:51.400,173642,-1.00,0.41,-0.10,10.82,17316
17:56:51.412,173652,-1.00,0.35,-0.16,10.70,17317
17:56:51.421,173662,-0.98,0.36,-0.18,10.59,17318
17:56:51.430,173672,-0.97,0.38,-0.18,10.55,17319
17:56:51.441,173682,-0.97,0.42,-0.15,10.67,17320
17:56:51.451,173692,-0.96,0.45,-0.10,10.67,17321
17:56:51.461,173702,-0.95,0.44,-0.04,10.50,17322
17:56:51.471,173712,-0.96,0.42,0.02,10.45,17323
17:56:51.485,173722,-0.96,0.39,0.06,10.41,17324
17:56:51.489,173732,-0.97,0.39,0.09,10.52,17325
17:56:51.507,173742,-0.97,0.44,0.12,10.77,17326
17:56:51.509,173752,-0.91,0.36,0.10,9.83,17327
17:56:51.523,173762,-0.91,0.40,0.10,9.98,17328
17:56:51.532,173772,-0.96,0.45,0.11,10.62,17329
17:56:51.543,173782,-0.98,0.41,0.14,10.76,17330
17:56:51.552,173792,-0.95,0.39,0.15,10.42,17331
17:56:51.559,173802,-0.95,0.39,0.16,10.35,17332
17:56:51.569,173812,-0.95,0.39,0.15,10.37,17333
17:56:51.579,173822,-0.96,0.42,0.15,10.63,17334
17:56:51.588,173832,-0.98,0.45,0.13,10.87,17335
17:56:51.604,173842,-0.98,0.43,0.12,10.76,17336
17:56:51.609,173852,-0.95,0.43,0.10,10.46,17337
17:56:51.627,173862,-0.95,0.46,0.10,10.62,17338
17:56:51.628,173872,-0.96,0.47,0.10,10.76,17339
17:56:51.646,173882,-0.99,0.45,0.06,10.92,17340
17:56:51.650,173892,-1.00,0.46,0.02,10.97,17341
17:56:51.660,173902,-1.02,0.44,-0.01,11.17,17342
17:56:51.670,173912,-1.04,0.44,-0.05,11.33,17343
17:56:51.685,173922,-1.06,0.41,-0.08,11.37,17344
17:56:51.689,173932,-1.06,0.38,-0.07,11.26,17345
17:56:51.700,173942,-1.06,0.37,-0.07,11.23,17346
17:56:51.711,173952,-1.04,0.41,-0.07,11.23,17347
17:56:51.720,173962,-1.03,0.41,-0.05,11.14,17348
17:56:51.730,173972,-1.00,0.45,-0.06,11.01,17349
17:56:51.739,173982,-0.97,0.46,-0.08,10.81,17350
17:56:51.791,173992,-0.95,0.47,-0.11,10.67,17351
17:56:51.794,174002,-0.94,0.47,-0.14,10.63,17352
17:56:51.794,174012,-0.96,0.44,-0.13,10.62,17353
17:56:51.794,174022,-1.00,0.45,-0.12,11.05,17354
17:56:51.796,174032,-1.06,0.49,-0.13,11.79,17355
17:56:51.831,174042,-1.07,0.59,-0.13,12.31,17356
17:56:51.831,174052,-1.06,0.63,-0.19,12.46,17357
17:56:51.831,174062,-1.07,0.61,-0.24,12.58,17358
17:56:51.832,174072,-1.08,0.66,-0.29,12.98,17359
17:56:51.870,174082,-1.07,0.73,-0.33,13.32,17360
17:56:51.870,174092,-1.11,0.72,-0.30,13.50,17361
17:56:51.872,174102,-1.23,0.72,-0.49,15.11,17362
17:56:51.874,174112,-1.30,0.76,-0.65,16.40,17363
17:56:51.911,174122,-1.33,0.75,-0.63,16.48,17364
17:56:51.912,174132,-1.31,0.53,-0.45,14.86,17365
17:56:51.913,174142,-1.36,0.32,-0.18,14.04,17366
17:56:51.915,174152,-1.42,0.16,0.20,14.48,17367
17:56:51.954,174162,-1.46,0.12,0.47,15.34,17368
17:56:51.956,174172,-1.35,0.11,0.75,15.53,17369
17:56:51.956,174182,-1.31,0.03,0.94,16.15,17370
17:56:51.956,174192,-1.29,0.03,0.95,16.01,17371
17:56:51.980,174202,-1.23,0.07,1.21,17.23,17372
17:56:51.982,174212,-0.85,0.29,1.12,14.38,17373
17:56:51.983,174222,-0.61,0.47,0.84,11.43,17374
17:56:51.990,174232,-0.49,0.65,0.76,11.14,17375
17:56:51.998,174242,-0.32,0.87,0.75,11.87,17376
17:56:52.008,174252,-0.29,0.71,0.88,11.71,17377
17:56:52.018,174262,-0.54,0.37,0.56,8.62,17378
17:56:52.039,174272,-0.65,0.08,0.72,9.76,17379
17:56:52.041,174282,-0.62,0.08,0.75,9.75,17380
17:56:52.051,174292,-0.52,0.18,0.72,9.08,17381
17:56:52.065,174302,-0.43,0.29,0.71,8.79,17382
17:56:52.070,174312,-0.43,0.19,0.68,8.32,17383
17:56:52.085,174322,-0.46,0.11,0.62,7.77,17384
17:56:52.091,174332,-0.40,0.14,0.71,8.30,17385
17:56:52.104,174342,-0.39,0.12,0.75,8.57,17386
17:56:52.110,174352,-0.39,0.16,0.72,8.33,17387
17:56:52.124,174362,-0.37,0.19,0.70,8.17,17388
17:56:52.129,174372,-0.33,0.20,0.69,7.88,17389
17:56:52.139,174382,-0.35,0.26,0.73,8.47,17390
17:56:52.149,174392,-0.34,0.34,0.70,8.47,17391
17:56:52.167,174402,-0.33,0.38,0.65,8.24,17392
17:56:52.176,174412,-0.36,0.38,0.65,8.35,17393
17:56:52.180,174422,-0.40,0.38,0.64,8.43,17394
17:56:52.190,174432,-0.43,0.41,0.60,8.46,17395
17:56:52.199,174442,-0.50,0.48,0.61,9.28,17396
17:56:52.208,174452,-0.51,0.38,0.60,8.75,17397
17:56:52.220,174462,-0.52,0.32,0.63,8.77,17398
17:56:52.230,174472,-0.57,0.37,0.62,9.20,17399
17:56:52.245,174482,-0.60,0.40,0.64,9.60,17400
17:56:52.249,174492,-0.62,0.42,0.58,9.46,17401
17:56:52.260,174502,-0.66,0.43,0.53,9.44,17402
17:56:52.269,174512,-0.69,0.42,0.49,9.44,17403
17:56:52.279,174522,-0.71,0.39,0.41,9.07,17404
17:56:52.290,174532,-0.76,0.37,0.26,8.87,17405
17:56:52.304,174542,-0.78,0.40,0.22,9.04,17406
17:56:52.346,174552,-0.85,0.47,0.26,10.09,17407
17:56:52.347,174562,-0.98,0.42,0.28,11.00,17408
17:56:52.348,174572,-0.99,0.39,0.16,10.79,17409
17:56:52.349,174582,-0.93,0.29,0.04,9.75,17410
17:56:52.370,174592,-0.83,0.20,-0.06,8.57,17411
17:56:52.371,174602,-0.74,0.26,-0.14,7.98,17412
17:56:52.372,174612,-0.66,0.36,-0.27,7.96,17413
17:56:52.383,174622,-0.58,0.41,-0.36,8.03,17414
17:56:52.393,174632,-0.55,0.47,-0.39,8.23,17415
17:56:52.399,174642,-0.60,0.43,-0.31,7.98,17416
17:56:52.435,174652,-0.68,0.30,-0.13,7.58,17417
17:56:52.437,174662,-0.76,0.17,0.06,7.77,17418
17:56:52.437,174672,-0.77,0.12,0.15,7.94,17419
17:56:52.438,174682,-0.78,0.10,0.26,8.24,17420
17:56:52.476,174692,-1.04,0.42,0.20,11.41,17421
17:56:52.477,174702,-2.13,1.88,-0.43,28.68,17422
17:56:52.478,174712,-2.13,2.00,-0.31,29.31,17423
17:56:52.480,174722,-1.12,0.75,-0.21,13.61,17424
17:56:52.517,174732,-0.38,0.66,-0.48,9.04,17425
17:56:52.518,174742,-1.04,0.30,-0.38,11.50,17426
17:56:52.520,174752,-1.34,0.21,0.27,13.84,17427
17:56:52.521,174762,-1.23,0.37,0.76,14.94,17428
17:56:52.559,174772,-0.93,0.82,0.61,13.81,17429
17:56:52.559,174782,-0.70,1.11,0.41,13.72,17430
17:56:52.560,174792,-0.62,1.08,0.08,12.52,17431
17:56:52.563,174802,-0.82,0.51,-0.19,9.81,17432
17:56:52.596,174812,-0.96,-0.11,-0.28,10.04,17433
17:56:52.597,174822,-1.17,-0.31,-0.06,12.14,17434
17:56:52.599,174832,-1.30,-0.29,0.03,13.30,17435
17:56:52.600,174842,-1.10,0.17,-0.21,11.37,17436
17:56:52.635,174852,-0.92,0.68,-0.23,11.69,17437
17:56:52.649,174862,-0.82,0.66,-0.24,10.81,17438
17:56:52.649,174872,-0.89,0.41,-0.15,9.95,17439
17:56:52.655,174882,-1.05,0.27,-0.07,10.90,17440
17:56:52.655,174892,-1.10,0.22,-0.06,11.20,17441
17:56:52.671,174902,-1.05,0.20,-0.06,10.73,17442
17:56:52.673,174912,-1.05,0.23,-0.06,10.71,17443
17:56:52.681,174922,-1.03,0.31,-0.04,10.77,17444
17:56:52.691,174932,-0.98,0.45,-0.04,10.78,17445
17:56:52.706,174942,-0.92,0.52,-0.03,10.56,17446
17:56:52.709,174952,-0.93,0.50,-0.00,10.50,17447
17:56:52.726,174962,-0.96,0.39,0.01,10.36,17448
17:56:52.729,174972,-0.96,0.37,0.07,10.36,17449
17:56:52.745,174982,-0.95,0.38,0.04,10.25,17450
17:56:52.749,174992,-0.93,0.42,0.07,10.22,17451
17:56:52.763,175002,-0.91,0.43,0.09,10.12,17452
17:56:52.770,175012,-0.91,0.45,0.11,10.19,17453
17:56:52.779,175022,-0.92,0.44,0.13,10.23,17454
17:56:52.788,175032,-0.94,0.42,0.14,10.40,17455
17:56:52.800,175042,-1.00,0.47,0.17,11.13,17456
17:56:52.812,175052,-0.99,0.39,0.18,10.78,17457
17:56:52.823,175062,-0.92,0.37,0.19,10.08,17458
17:56:52.832,175072,-0.95,0.43,0.20,10.62,17459
17:56:52.842,175082,-0.96,0.43,0.19,10.71,17460
17:56:52.850,175092,-0.97,0.39,0.16,10.60,17461
17:56:52.861,175102,-0.99,0.39,0.12,10.75,17462
17:56:52.869,175112,-0.98,0.36,0.09,10.46,17463
17:56:52.884,175122,-0.98,0.38,0.05,10.50,17464
17:56:52.889,175132,-1.00,0.38,0.01,10.69,17465
17:56:52.899,175142,-1.01,0.38,0.00,10.77,17466
17:56:52.915,175152,-0.99,0.41,0.00,10.68,17467
17:56:52.925,175162,-0.99,0.44,0.01,10.82,17468
17:56:52.933,175172,-1.02,0.47,0.05,11.24,17469
17:56:52.939,175182,-1.01,0.47,0.04,11.13,17470
17:56:52.955,175192,-1.00,0.46,0.03,11.04,17471
17:56:52.959,175202,-1.01,0.43,0.03,10.99,17472
17:56:52.971,175212,-1.01,0.43,0.02,10.97,17473
17:56:52.981,175222,-1.03,0.42,-0.01,11.17,17474
17:56:52.997,175232,-1.05,0.41,-0.02,11.29,17475
17:56:53.000,175242,-1.07,0.39,-0.04,11.34,17476
17:56:53.009,175252,-1.07,0.39,-0.04,11.41,17477
17:56:53.018,175262,-1.05,0.39,-0.05,11.24,17478
17:56:53.034,175272,-1.03,0.39,-0.06,11.01,17479
17:56:53.039,175282,-0.99,0.44,-0.05,10.84,17480
17:56:53.050,175292,-0.96,0.44,-0.04,10.62,17481
17:56:53.059,175302,-0.92,0.45,-0.04,10.28,17482
17:56:53.070,175312,-0.91,0.46,-0.04,10.18,17483
17:56:53.085,175322,-0.93,0.44,-0.03,10.31,17484
17:56:53.091,175332,-0.99,0.45,-0.00,10.90,17485
17:56:53.100,175342,-1.03,0.51,0.00,11.53,17486
17:56:53.114,175352,-1.01,0.59,-0.03,11.72,17487
17:56:53.120,175362,-1.02,0.59,-0.07,11.78,17488
17:56:53.129,175372,-1.02,0.60,-0.10,11.89,17489
17:56:53.140,175382,-1.02,0.63,-0.14,12.07,17490
17:56:53.149,175392,-1.01,0.65,-0.20,12.20,17491
17:56:53.165,175402,-1.04,0.66,-0.20,12.52,17492
17:56:53.170,175412,-1.11,0.72,-0.28,13.57,17493
17:56:53.189,175422,-1.16,0.81,-0.47,14.89,17494
17:56:53.189,175432,-1.15,0.89,-0.59,15.70,17495
17:56:53.227,175442,-1.15,0.76,-0.50,14.60,17496
17:56:53.228,175452,-1.19,0.57,-0.37,13.71,17497
17:56:53.230,175462,-1.23,0.40,-0.17,13.08,17498
17:56:53.231,175472,-1.31,0.25,0.08,13.36,17499
17:56:53.259,175482,-1.11,0.41,0.37,12.42,17500
17:56:53.260,175492,-1.34,-0.03,0.82,15.68,17501
17:56:53.262,175502,-1.25,-0.05,0.87,15.21,17502
17:56:53.301,175512,-1.27,-0.04,0.88,15.46,17503
17:56:53.301,175522,-1.31,-0.04,1.11,17.13,17504
17:56:53.303,175532,-0.93,0.24,1.06,14.26,17505
17:56:53.305,175542,-0.63,0.41,0.82,11.12,17506
17:56:53.334,175552,-0.49,0.44,0.82,10.55,17507
17:56:53.335,175562,-0.50,0.79,0.56,10.90,17508
17:56:53.336,175572,-0.34,1.12,0.30,12.08,17509
17:56:53.338,175582,-0.58,0.30,0.64,9.11,17510
17:56:53.367,175592,-0.70,0.13,0.73,10.17,17511
17:56:53.368,175602,-0.60,0.22,0.74,9.82,17512
17:56:53.369,175612,-0.58,0.34,0.75,10.07,17513
17:56:53.409,175622,-0.54,0.30,0.71,9.46,17514
17:56:53.409,175632,-0.48,0.24,0.69,8.78,17515
17:56:53.410,175642,-0.47,0.21,0.71,8.78,17516
17:56:53.413,175652,-0.44,0.20,0.70,8.49,17517
17:56:53.437,175662,-0.39,0.16,0.69,8.10,17518
17:56:53.439,175672,-0.40,0.20,0.74,8.60,17519
17:56:53.440,175682,-0.36,0.23,0.69,8.14,17520
17:56:53.451,175692,-0.33,0.29,0.67,8.02,17521
17:56:53.467,175702,-0.34,0.34,0.67,8.29,17522
17:56:53.468,175712,-0.35,0.39,0.63,8.22,17523
17:56:53.478,175722,-0.34,0.38,0.60,7.86,17524
17:56:53.497,175732,-0.37,0.38,0.59,7.90,17525
17:56:53.499,175742,-0.40,0.37,0.62,8.22,17526
17:56:53.508,175752,-0.44,0.40,0.59,8.38,17527
17:56:53.521,175762,-0.50,0.42,0.54,8.46,17528
17:56:53.531,175772,-0.53,0.41,0.56,8.72,17529
17:56:53.541,175782,-0.55,0.45,0.50,8.72,17530
17:56:53.551,175792,-0.60,0.39,0.52,8.87,17531
17:56:53.568,175802,-0.64,0.43,0.52,9.30,17532
17:56:53.569,175812,-0.66,0.46,0.51,9.53,17533
17:56:53.581,175822,-0.70,0.49,0.48,9.79,17534
17:56:53.589,175832,-0.72,0.51,0.41,9.73,17535
17:56:53.599,175842,-0.74,0.45,0.38,9.49,17536
17:56:53.634,175852,-0.81,0.41,0.31,9.61,17537
17:56:53.634,175862,-0.90,0.37,0.28,10.15,17538
17:56:53.635,175872,-0.99,0.42,0.22,10.92,17539
17:56:53.666,175882,-1.01,0.43,0.20,11.14,17540
17:56:53.668,175892,-1.04,0.43,0.11,11.33,17541
17:56:53.668,175902,-0.89,0.38,0.03,9.68,17542
17:56:53.669,175912,-0.87,0.42,-0.03,9.62,17543
17:56:53.679,175922,-0.92,0.38,-0.02,9.95,17544
17:56:53.689,175932,-0.91,0.37,-0.08,9.85,17545
17:56:53.705,175942,-0.79,0.32,-0.19,8.76,17546
17:56:53.709,175952,-0.61,0.31,-0.38,7.81,17547
17:56:53.721,175962,-0.49,0.35,-0.49,7.77,17548
17:56:53.731,175972,-0.52,0.43,-0.51,8.43,17549
17:56:53.740,175982,-0.69,0.37,-0.29,8.31,17550
17:56:53.757,175992,-0.78,0.23,-0.07,8.20,17551
17:56:53.758,176002,-0.73,0.17,0.08,7.57,17552
17:56:53.769,176012,-0.68,0.19,0.22,7.46,17553
17:56:53.778,176022,-0.69,0.23,0.27,7.78,17554
17:56:53.794,176032,-1.04,0.57,0.23,12.11,17555
17:56:53.800,176042,-2.13,1.79,-0.14,27.80,17556
17:56:53.809,176052,-2.01,1.53,-0.32,25.48,17557
17:56:53.824,176062,-1.08,0.72,-0.20,13.10,17558
17:56:53.828,176072,-0.81,0.85,-0.39,12.34,17559
17:56:53.843,176082,-1.20,0.42,-0.09,12.70,17560
17:56:53.852,176092,-1.29,0.17,0.18,13.13,17561
17:56:53.860,176102,-1.14,0.18,0.61,13.04,17562
17:56:53.911,176112,-0.83,0.69,0.51,11.97,17563
17:56:53.912,176122,-0.69,1.07,0.36,13.16,17564
17:56:53.913,176132,-0.66,1.01,0.05,12.04,17565
17:56:53.915,176142,-0.80,0.52,-0.13,9.63,17566
17:56:53.916,176152,-0.87,0.12,-0.13,8.92,17567
17:56:53.957,176162,-1.02,-0.12,-0.12,10.36,17568
17:56:53.958,176172,-1.20,-0.13,-0.00,12.02,17569
17:56:53.993,176182,-1.16,0.17,-0.04,11.74,17570
17:56:53.994,176192,-1.02,0.50,-0.08,11.34,17571
17:56:53.995,176202,-0.87,0.57,-0.17,10.54,17572
17:56:54.036,176212,-0.90,0.49,-0.10,10.32,17573
17:56:54.038,176222,-1.03,0.32,-0.03,10.77,17574
17:56:54.038,176232,-1.06,0.29,0.04,10.99,17575
17:56:54.039,176242,-1.01,0.32,0.04,10.61,17576
17:56:54.042,176252,-1.01,0.31,0.02,10.55,17577
17:56:54.042,176262,-1.00,0.38,-0.00,10.72,17578
17:56:54.042,176272,-1.01,0.39,-0.07,10.88,17579
17:56:54.042,176282,-1.03,0.36,-0.09,10.98,17580
17:56:54.078,176292,-1.05,0.36,-0.06,11.06,17581
17:56:54.078,176302,-1.05,0.33,-0.01,11.01,17582
17:56:54.079,176312,-1.03,0.32,0.04,10.79,17583
17:56:54.081,176322,-0.98,0.39,0.02,10.57,17584
17:56:54.100,176332,-0.94,0.42,0.00,10.29,17585
17:56:54.108,176342,-0.96,0.40,0.02,10.38,17586
17:56:54.110,176352,-0.96,0.44,0.02,10.58,17587
17:56:54.126,176362,-0.98,0.42,0.05,10.67,17588
17:56:54.132,176372,-0.98,0.40,0.09,10.65,17589
17:56:54.140,176382,-0.96,0.39,0.11,10.40,17590
17:56:54.148,176392,-0.96,0.40,0.12,10.45,17591
17:56:54.169,176402,-0.98,0.40,0.15,10.65,17592
17:56:54.170,176412,-0.98,0.40,0.14,10.68,17593
17:56:54.181,176422,-0.96,0.38,0.14,10.42,17594
17:56:54.191,176432,-0.96,0.37,0.15,10.40,17595
17:56:54.199,176442,-0.96,0.38,0.17,10.48,17596
17:56:54.216,176452,-0.97,0.39,0.16,10.55,17597
17:56:54.218,176462,-0.96,0.38,0.14,10.39,17598
17:56:54.240,176472,-0.95,0.41,0.12,10.39,17599
17:56:54.240,176482,-0.95,0.45,0.09,10.57,17600
17:56:54.252,176492,-0.97,0.44,0.07,10.66,17601
17:56:54.258,176502,-0.95,0.45,0.06,10.59,17602
17:56:54.278,176512,-0.94,0.48,0.06,10.54,17603
17:56:54.280,176522,-0.94,0.48,0.04,10.61,17604
17:56:54.290,176532,-0.95,0.48,0.03,10.62,17605
17:56:54.306,176542,-0.98,0.42,0.02,10.67,17606
17:56:54.310,176552,-1.00,0.40,0.01,10.80,17607
17:56:54.320,176562,-1.01,0.41,0.00,10.87,17608
17:56:54.329,176572,-1.01,0.39,-0.01,10.87,17609
17:56:54.338,176582,-1.00,0.40,-0.04,10.76,17610
17:56:54.348,176592,-1.00,0.42,-0.04,10.86,17611
17:56:54.358,176602,-1.01,0.41,-0.04,10.88,17612
17:56:54.368,176612,-1.01,0.41,-0.04,10.92,17613
17:56:54.379,176622,-1.00,0.44,-0.04,10.97,17614
17:56:54.389,176632,-0.98,0.46,-0.05,10.83,17615
17:56:54.406,176642,-0.95,0.47,-0.06,10.62,17616
17:56:54.410,176652,-0.94,0.45,-0.09,10.48,17617
17:56:54.420,176662,-0.93,0.46,-0.09,10.44,17618
17:56:54.430,176672,-0.93,0.47,-0.09,10.48,17619
17:56:54.443,176682,-0.99,0.50,-0.08,11.14,17620
17:56:54.451,176692,-1.06,0.52,-0.09,11.88,17621
17:56:54.461,176702,-1.07,0.59,-0.12,12.28,17622
17:56:54.471,176712,-1.07,0.62,-0.18,12.54,17623
17:56:54.479,176722,-1.11,0.64,-0.26,13.10,17624
17:56:54.495,176732,-1.11,0.71,-0.34,13.63,17625
17:56:54.506,176742,-1.10,0.75,-0.40,13.89,17626
17:56:54.509,176752,-1.14,0.73,-0.43,14.17,17627
17:56:54.520,176762,-1.23,0.69,-0.61,15.42,17628
17:56:54.539,176772,-1.34,0.66,-0.65,16.26,17629
17:56:54.542,176782,-1.39,0.62,-0.64,16.51,17630
17:56:54.553,176792,-1.34,0.42,-0.47,14.75,17631
17:56:54.561,176802,-1.39,0.23,-0.20,14.20,17632
17:56:54.569,176812,-1.31,0.23,0.27,13.53,17633
17:56:54.584,176822,-1.49,0.15,0.59,16.11,17634
17:56:54.589,176832,-1.37,0.26,0.74,15.79,17635
17:56:54.607,176842,-1.27,0.19,0.87,15.53,17636
17:56:54.608,176852,-1.22,0.15,0.93,15.41,17637
17:56:54.618,176862,-1.14,0.11,1.10,15.89,17638
17:56:54.628,176872,-0.85,0.23,1.11,14.15,17639
17:56:54.638,176882,-0.61,0.40,0.85,11.16,17640
17:56:54.652,176892,-0.53,0.57,0.72,10.60,17641
17:56:54.658,176902,-0.53,0.70,0.77,11.66,17642
17:56:54.699,176912,-0.38,0.75,0.56,10.14,17643
17:56:54.700,176922,-0.51,0.39,0.66,9.24,17644
17:56:54.703,176932,-0.71,0.09,0.76,10.44,17645
17:56:54.703,176942,-0.66,0.05,0.69,9.57,17646
17:56:54.740,176952,-0.69,-0.00,0.80,10.58,17647
17:56:54.742,176962,-0.47,0.29,0.68,8.74,17648
17:56:54.742,176972,-0.35,0.29,0.70,8.34,17649
17:56:54.745,176982,-0.39,0.24,0.68,8.17,17650
17:56:54.782,176992,-0.37,0.20,0.73,8.41,17651
17:56:54.797,177002,-0.36,0.18,0.65,7.66,17652
17:56:54.797,177012,-0.37,0.14,0.70,8.07,17653
17:56:54.823,177022,-0.33,0.16,0.69,7.79,17654
17:56:54.824,177032,-0.34,0.17,0.70,7.94,17655
17:56:54.825,177042,-0.36,0.24,0.74,8.55,17656
17:56:54.828,177052,-0.34,0.31,0.70,8.40,17657
17:56:54.828,177062,-0.34,0.35,0.64,8.06,17658
17:56:54.864,177072,-0.34,0.38,0.62,7.98,17659
17:56:54.864,177082,-0.36,0.40,0.59,7.99,17660
17:56:54.866,177092,-0.38,0.47,0.60,8.48,17661
17:56:54.867,177102,-0.42,0.51,0.58,8.81,17662
17:56:54.868,177112,-0.44,0.48,0.59,8.84,17663
17:56:54.906,177122,-0.43,0.27,0.45,6.73,17664
17:56:54.906,177132,-0.55,0.37,0.64,9.20,17665
17:56:54.907,177142,-0.61,0.38,0.61,9.46,17666
17:56:54.908,177152,-0.66,0.37,0.60,9.66,17667
17:56:54.954,177162,-0.69,0.39,0.59,9.81,17668
17:56:54.954,177172,-0.71,0.42,0.56,10.00,17669
17:56:54.955,177182,-0.74,0.47,0.51,10.09,17670
17:56:54.957,177192,-0.78,0.52,0.41,10.23,17671
17:56:54.974,177202,-0.78,0.48,0.37,9.91,17672
17:56:54.987,177212,-0.75,0.48,0.17,9.03,17673
17:56:54.988,177222,-0.77,0.36,0.16,8.68,17674
17:56:54.990,177232,-0.84,0.46,0.17,9.72,17675
17:56:54.998,177242,-0.91,0.36,0.21,9.99,17676
17:56:55.015,177252,-1.00,0.27,0.06,10.36,17677
17:56:55.019,177262,-0.96,0.17,-0.07,9.75,17678
17:56:55.035,177272,-0.81,0.19,-0.20,8.55,17679
17:56:55.039,177282,-0.67,0.30,-0.39,8.32,17680
17:56:55.055,177292,-0.52,0.43,-0.63,9.24,17681
17:56:55.060,177302,-0.53,0.51,-0.68,10.03,17682
17:56:55.069,177312,-0.60,0.37,-0.36,7.89,17683
17:56:55.079,177322,-0.76,0.24,-0.07,7.96,17684
17:56:55.095,177332,-0.80,0.15,0.12,8.19,17685
17:56:55.099,177342,-0.78,0.10,0.25,8.29,17686
17:56:55.112,177352,-0.74,0.11,0.32,8.16,17687
17:56:55.123,177362,-0.90,0.49,0.33,10.79,17688
17:56:55.132,177372,-2.13,1.74,-0.14,27.51,17689
17:56:55.139,177382,-2.13,2.00,-0.48,29.54,17690
17:56:55.156,177392,-1.64,0.99,-0.47,19.77,17691
17:56:55.159,177402,-0.63,0.15,-0.32,7.19,17692
17:56:55.176,177412,-1.22,0.08,-0.35,12.70,17693
17:56:55.180,177422,-1.33,0.04,0.06,13.33,17694
17:56:55.197,177432,-1.16,0.16,0.56,12.93,17695
17:56:55.203,177442,-0.83,0.66,0.53,11.87,17696
17:56:55.214,177452,-0.68,1.12,0.39,13.62,17697
17:56:55.219,177462,-0.55,1.20,0.14,13.25,17698
17:56:55.229,177472,-0.70,0.74,-0.09,10.24,17699
17:56:55.238,177482,-0.89,0.28,-0.10,9.40,17700
17:56:55.250,177492,-0.98,-0.05,-0.08,9.84,17701
17:56:55.259,177502,-1.13,-0.13,0.08,11.41,17702
17:56:55.308,177512,-1.23,-0.03,0.05,12.35,17703
17:56:55.308,177522,-1.12,0.33,0.04,11.68,17704
17:56:55.308,177532,-0.91,0.60,-0.09,10.92,17705
17:56:55.309,177542,-0.83,0.56,-0.07,10.06,17706
17:56:55.323,177552,-0.91,0.43,-0.01,10.05,17707
17:56:55.324,177562,-1.03,0.31,0.04,10.82,17708
17:56:55.336,177572,-1.07,0.27,0.05,11.06,17709
17:56:55.338,177582,-1.06,0.26,0.03,10.92,17710
17:56:55.390,177592,-1.02,0.31,0.01,10.69,17711
17:56:55.392,177602,-1.00,0.38,0.01,10.69,17712
17:56:55.393,177612,-0.97,0.43,-0.03,10.64,17713
17:56:55.393,177622,-1.00,0.42,-0.02,10.83,17714
17:56:55.395,177632,-1.00,0.43,-0.06,10.86,17715
17:56:55.431,177642,-0.98,0.41,-0.09,10.70,17716
17:56:55.432,177652,-0.98,0.36,-0.10,10.49,17717
17:56:55.433,177662,-0.97,0.35,-0.09,10.32,17718
17:56:55.435,177672,-0.96,0.37,-0.06,10.32,17719
17:56:55.473,177682,-0.95,0.40,-0.03,10.31,17720
17:56:55.474,177692,-0.95,0.43,-0.02,10.46,17721
17:56:55.474,177702,-0.95,0.45,0.01,10.49,17722
17:56:55.475,177712,-0.97,0.41,0.04,10.51,17723
17:56:55.513,177722,-0.97,0.42,0.08,10.61,17724
17:56:55.514,177732,-0.94,0.41,0.10,10.31,17725
17:56:55.515,177742,-0.92,0.41,0.12,10.10,17726
17:56:55.517,177752,-0.93,0.41,0.13,10.24,17727
17:56:55.520,177762,-0.95,0.41,0.13,10.42,17728
17:56:55.555,177772,-0.96,0.41,0.14,10.55,17729
17:56:55.561,177782,-0.96,0.41,0.13,10.51,17730
17:56:55.561,177792,-0.96,0.42,0.12,10.56,17731
17:56:55.561,177802,-0.98,0.42,0.11,10.72,17732
17:56:55.570,177812,-1.01,0.34,0.13,10.78,17733
17:56:55.584,177822,-1.02,0.37,0.09,10.87,17734
17:56:55.589,177832,-1.01,0.41,0.12,10.97,17735
17:56:55.599,177842,-0.97,0.43,0.09,10.70,17736
17:56:55.616,177852,-0.98,0.47,0.09,10.91,17737
17:56:55.620,177862,-1.01,0.48,0.09,11.24,17738
17:56:55.631,177872,-1.04,0.44,0.05,11.33,17739
17:56:55.641,177882,-1.03,0.46,0.04,11.33,17740
17:56:55.649,177892,-1.01,0.49,0.01,11.25,17741
17:56:55.658,177902,-1.03,0.47,-0.01,11.34,17742
17:56:55.671,177912,-1.04,0.45,-0.01,11.37,17743
17:56:55.685,177922,-1.05,0.42,-0.03,11.37,17744
17:56:55.689,177932,-1.07,0.40,-0.05,11.48,17745
17:56:55.701,177942,-1.06,0.41,-0.09,11.43,17746
17:56:55.710,177952,-1.02,0.45,-0.12,11.15,17747
17:56:55.720,177962,-1.00,0.44,-0.15,11.00,17748
17:56:55.737,177972,-0.98,0.42,-0.18,10.86,17749
17:56:55.738,177982,-0.99,0.40,-0.18,10.83,17750
17:56:55.755,177992,-1.01,0.41,-0.15,10.97,17751
17:56:55.759,178002,-1.05,0.43,-0.14,11.40,17752
17:56:55.768,178012,-1.08,0.49,-0.13,11.94,17753
17:56:55.782,178022,-1.08,0.55,-0.14,12.17,17754
17:56:55.789,178032,-1.06,0.56,-0.16,12.15,17755
17:56:55.799,178042,-1.08,0.58,-0.17,12.35,17756
17:56:55.810,178052,-1.07,0.65,-0.18,12.64,17757
17:56:55.819,178062,-1.04,0.75,-0.26,13.05,17758
17:56:55.828,178072,-1.04,0.75,-0.29,13.18,17759
17:56:55.838,178082,-1.10,0.76,-0.26,13.57,17760
17:56:55.848,178092,-1.18,0.80,-0.60,15.45,17761
17:56:55.861,178102,-1.19,0.85,-0.75,16.40,17762
17:56:55.871,178112,-1.19,0.73,-0.54,14.96,17763
17:56:55.880,178122,-1.17,0.59,-0.34,13.48,17764
17:56:55.889,178132,-1.22,0.40,-0.01,12.88,17765
17:56:55.901,178142,-1.30,0.30,0.26,13.61,17766
17:56:55.912,178152,-1.30,0.15,0.55,14.19,17767
17:56:55.920,178162,-1.30,0.10,0.95,16.11,17768
17:56:55.930,178172,-1.28,0.01,0.94,15.87,17769
17:56:55.943,178182,-1.34,0.01,0.96,16.47,17770
17:56:55.951,178192,-1.24,0.12,1.16,17.03,17771
17:56:55.963,178202,-0.83,0.36,0.98,13.36,17772
17:56:55.973,178212,-0.59,0.45,0.83,11.13,17773
17:56:55.978,178222,-0.43,0.56,0.80,10.70,17774
17:56:55.988,178232,-0.37,0.80,0.32,9.37,17775
17:56:55.999,178242,-0.40,0.53,0.78,10.25,17776
17:56:56.018,178252,-0.54,0.34,0.67,9.28,17777
17:56:56.019,178262,-0.57,0.14,0.70,9.08,17778
17:56:56.036,178272,-0.52,0.24,0.70,9.02,17779
17:56:56.040,178282,-0.45,0.35,0.72,9.21,17780
17:56:56.051,178292,-0.45,0.33,0.70,8.95,17781
17:56:56.061,178302,-0.44,0.24,0.68,8.49,17782
17:56:56.071,178312,-0.41,0.25,0.72,8.70,17783
17:56:56.078,178322,-0.39,0.25,0.70,8.40,17784
17:56:56.093,178332,-0.37,0.15,0.73,8.28,17785
17:56:56.099,178342,-0.37,0.19,0.69,8.02,17786
17:56:56.109,178352,-0.34,0.24,0.68,7.96,17787
17:56:56.127,178362,-0.33,0.28,0.71,8.28,17788
17:56:56.128,178372,-0.33,0.35,0.66,8.13,17789
17:56:56.162,178382,-0.31,0.37,0.63,7.94,17790
17:56:56.163,178392,-0.31,0.38,0.62,7.93,17791
17:56:56.164,178402,-0.35,0.41,0.62,8.15,17792
17:56:56.202,178412,-0.38,0.43,0.59,8.24,17793
17:56:56.204,178422,-0.43,0.44,0.59,8.55,17794
17:56:56.204,178432,-0.49,0.42,0.63,9.01,17795
17:56:56.205,178442,-0.55,0.42,0.72,9.96,17796
17:56:56.238,178452,-0.59,0.36,0.68,9.69,17797
17:56:56.238,178462,-0.66,0.41,0.66,10.16,17798
17:56:56.239,178472,-0.70,0.41,0.66,10.46,17799
17:56:56.240,178482,-0.73,0.42,0.58,10.19,17800
17:56:56.279,178492,-0.76,0.42,0.52,10.10,17801
17:56:56.279,178502,-0.79,0.40,0.42,9.81,17802
17:56:56.322,178512,-0.83,0.41,0.36,9.96,17803
17:56:56.404,178522,-0.86,0.43,0.29,10.02,17804
17:56:56.404,178532,-0.85,0.43,0.25,9.86,17805
17:56:56.406,178542,-0.85,0.44,0.20,9.81,17806
17:56:56.407,178552,-0.83,0.40,0.15,9.29,17807
17:56:56.408,178562,-0.88,0.31,0.11,9.40,17808
17:56:56.409,178572,-0.85,0.21,-0.04,8.73,17809
17:56:56.410,178582,-0.66,0.23,-0.27,7.53,17810
17:56:56.411,178592,-0.44,0.33,-0.65,8.52,17811
17:56:56.412,178602,-0.29,0.12,-0.84,8.97,17812
17:56:56.416,178612,-0.53,0.47,-0.56,9.04,17813
17:56:56.418,178622,-0.77,0.26,-0.07,8.20,17814
17:56:56.418,178632,-0.87,0.02,0.19,8.93,17815
17:56:56.418,178642,-0.85,-0.12,0.56,10.25,17816
17:56:56.418,178652,-0.79,-0.01,0.46,9.14,17817
17:56:56.419,178662,-1.04,0.55,0.40,12.44,17818
17:56:56.428,178672,-2.13,1.88,-0.23,28.43,17819
17:56:56.438,178682,-1.86,1.86,-0.22,26.42,17820
17:56:56.451,178692,-0.92,0.70,-0.04,11.59,17821
17:56:56.459,178702,-0.62,0.62,-0.37,9.53,17822
17:56:56.469,178712,-1.31,0.27,-0.14,13.47,17823
17:56:56.480,178722,-1.57,0.15,0.46,16.40,17824
17:56:56.489,178732,-1.16,0.39,0.97,15.57,17825
17:56:56.500,178742,-0.64,1.14,0.56,14.20,17826
17:56:56.510,178752,-0.51,1.49,0.37,16.21,17827
17:56:56.524,178762,-0.41,1.20,0.00,12.68,17828
17:56:56.528,178772,-0.82,0.39,-0.11,9.12,17829
17:56:56.541,178782,-1.09,-0.18,-0.23,11.33,17830
17:56:56.548,178792,-1.21,-0.16,-0.31,12.58,17831
17:56:56.562,178802,-1.27,-0.21,-0.07,12.90,17832
17:56:56.570,178812,-1.09,0.23,-0.14,11.22,17833
17:56:56.581,178822,-0.93,0.57,-0.23,11.12,17834
17:56:56.591,178832,-0.87,0.61,-0.24,10.93,17835
17:56:56.715,178842,-0.92,0.42,-0.16,10.22,17836
17:56:56.716,178852,-1.02,0.34,-0.08,10.74,17837
17:56:56.716,178862,-1.05,0.31,-0.07,10.97,17838
17:56:56.716,178872,-1.01,0.30,-0.07,10.59,17839
17:56:56.718,178882,-0.99,0.33,-0.10,10.45,17840
17:56:56.719,178892,-0.99,0.36,-0.10,10.58,17841
17:56:56.721,178902,-1.00,0.35,-0.08,10.65,17842
17:56:56.722,178912,-1.01,0.34,-0.08,10.64,17843
17:56:56.724,178922,-1.00,0.34,-0.06,10.58,17844
17:56:56.726,178932,-1.00,0.35,-0.04,10.60,17845
17:56:56.729,178942,-0.97,0.38,-0.01,10.46,17846
17:56:56.731,178952,-0.96,0.38,0.02,10.32,17847
17:56:56.731,178962,-0.95,0.42,0.07,10.39,17848
17:56:56.731,178972,-0.94,0.46,0.11,10.51,17849
17:56:56.739,178982,-0.95,0.52,0.13,10.87,17850
17:56:56.749,178992,-0.93,0.49,0.14,10.60,17851
17:56:56.763,179002,-0.95,0.44,0.16,10.62,17852
17:56:56.768,179012,-0.96,0.36,0.20,10.50,17853
17:56:56.783,179022,-0.97,0.39,0.24,10.72,17854
17:56:56.788,179032,-0.92,0.31,0.22,9.96,17855
17:56:56.800,179042,-0.96,0.48,0.25,11.01,17856
17:56:56.809,179052,-0.97,0.50,0.23,11.20,17857
17:56:56.819,179062,-0.93,0.46,0.18,10.57,17858
17:56:56.828,179072,-0.92,0.43,0.14,10.28,17859
17:56:56.863,179082,-0.96,0.38,0.10,10.39,17860
17:56:56.867,179092,-0.97,0.40,0.05,10.46,17861
17:56:56.867,179102,-0.99,0.42,0.03,10.76,17862
17:56:56.868,179112,-1.01,0.43,0.05,11.01,17863
17:56:56.908,179122,-0.99,0.47,0.00,10.92,17864
17:56:56.911,179132,-0.98,0.46,0.04,10.82,17865
17:56:56.913,179142,-0.98,0.44,0.03,10.69,17866
17:56:56.947,179152,-0.99,0.43,0.02,10.81,17867
17:56:56.947,179162,-1.00,0.43,0.03,10.91,17868
17:56:56.948,179172,-0.99,0.44,0.01,10.86,17869
17:56:56.950,179182,-1.01,0.39,-0.01,10.85,17870
17:56:56.950,179192,-1.04,0.35,-0.02,10.95,17871
17:56:56.988,179202,-1.05,0.34,-0.05,11.01,17872
17:56:56.988,179212,-1.04,0.38,-0.09,11.13,17873
17:56:56.989,179222,-1.01,0.44,-0.12,11.05,17874
17:56:56.991,179232,-0.95,0.46,-0.13,10.70,17875
17:56:57.028,179242,-0.93,0.45,-0.15,10.44,17876
17:56:57.029,179252,-0.92,0.43,-0.17,10.25,17877
17:56:57.030,179262,-0.94,0.42,-0.14,10.41,17878
17:56:57.031,179272,-0.99,0.46,-0.13,11.04,17879
17:56:57.067,179282,-1.07,0.48,-0.13,11.81,17880
17:56:57.067,179292,-1.12,0.54,-0.13,12.53,17881
17:56:57.068,179302,-1.13,0.63,-0.14,13.03,17882
17:56:57.069,179312,-1.11,0.69,-0.18,13.18,17883
17:56:57.079,179322,-1.09,0.69,-0.23,13.15,17884
17:56:57.097,179332,-1.10,0.69,-0.27,13.24,17885
17:56:57.101,179342,-1.14,0.72,-0.29,13.80,17886
17:56:57.110,179352,-1.19,0.74,-0.62,15.36,17887
17:56:57.121,179362,-1.28,0.78,-0.75,16.83,17888
17:56:57.131,179372,-1.28,0.75,-0.61,16.00,17889
17:56:57.139,179382,-1.27,0.63,-0.33,14.53,17890
17:56:57.149,179392,-1.29,0.49,-0.09,13.80,17891
17:56:57.159,179402,-1.35,0.36,0.26,14.24,17892
17:56:57.169,179412,-1.45,0.28,0.52,15.63,17893
17:56:57.181,179422,-1.35,0.22,0.84,16.07,17894
17:56:57.192,179432,-1.30,0.11,1.07,16.87,17895
17:56:57.202,179442,-1.30,0.01,1.13,17.26,17896
17:56:57.212,179452,-1.26,0.09,1.20,17.46,17897
17:56:57.222,179462,-0.90,0.18,1.10,14.30,17898
17:56:57.229,179472,-0.47,0.46,0.91,11.23,17899
17:56:57.238,179482,-0.55,0.80,0.35,10.32,17900
17:56:57.248,179492,-0.24,0.77,0.55,9.74,17901
17:56:57.259,179502,-0.41,0.53,0.69,9.64,17902
17:56:57.269,179512,-0.45,0.26,0.68,8.56,17903
17:56:57.279,179522,-0.51,0.25,0.72,9.15,17904
17:56:57.291,179532,-0.51,0.26,0.73,9.24,17905
17:56:57.298,179542,-0.51,0.32,0.75,9.60,17906
17:56:57.310,179552,-0.45,0.31,0.70,8.83,17907
17:56:57.321,179562,-0.35,0.29,0.70,8.37,17908
17:56:57.331,179572,-0.33,0.26,0.70,8.15,17909
17:56:57.338,179582,-0.32,0.21,0.67,7.75,17910
17:56:57.348,179592,-0.32,0.24,0.67,7.80,17911
17:56:57.360,179602,-0.31,0.26,0.67,7.80,17912
17:56:57.370,179612,-0.34,0.26,0.67,7.92,17913
17:56:57.385,179622,-0.32,0.30,0.69,8.16,17914
17:56:57.389,179632,-0.31,0.32,0.67,8.01,17915
17:56:57.400,179642,-0.35,0.25,0.74,8.57,17916
17:56:57.415,179652,-0.31,0.31,0.58,7.25,17917
17:56:57.419,179662,-0.34,0.29,0.62,7.60,17918
17:56:57.429,179672,-0.39,0.33,0.60,7.88,17919
17:56:57.464,179682,-0.45,0.36,0.55,7.94,17920
17:56:57.466,179692,-0.47,0.38,0.56,8.20,17921
17:56:57.468,179702,-0.48,0.38,0.58,8.44,17922
17:56:57.469,179712,-0.51,0.39,0.58,8.64,17923
17:56:57.485,179722,-0.53,0.37,0.55,8.52,17924
17:56:57.488,179732,-0.58,0.43,0.54,9.05,17925
17:56:57.498,179742,-0.65,0.42,0.56,9.59,17926
17:56:57.510,179752,-0.73,0.45,0.54,10.09,17927
17:56:57.519,179762,-0.79,0.44,0.49,10.27,17928
17:56:57.528,179772,-0.84,0.43,0.43,10.33,17929
17:56:57.544,179782,-0.90,0.45,0.35,10.67,17930
17:56:57.548,179792,-0.94,0.45,0.29,10.79,17931
17:56:57.561,179802,-0.91,0.42,0.23,10.26,17932
17:56:57.568,179812,-0.88,0.43,0.17,9.97,17933
17:56:57.579,179822,-0.86,0.31,0.16,9.31,17934
17:56:57.594,179832,-0.90,0.34,0.15,9.74,17935
17:56:57.598,179842,-0.97,0.32,0.09,10.26,17936
17:56:57.637,179852,-0.97,0.23,-0.00,10.01,17937
17:56:57.638,179862,-0.79,0.23,-0.17,8.38,17938
17:56:57.678,179872,-0.48,0.28,-0.60,8.17,17939
17:56:57.679,179882,-0.21,0.59,-0.88,10.83,17940
17:56:57.807,179892,-0.20,0.64,-0.65,9.39,17941
17:56:57.836,179902,-0.61,0.33,-0.20,7.22,17942
17:56:57.836,179912,-0.71,0.10,0.10,7.26,17943
17:56:57.838,179922,-0.79,0.14,0.32,8.61,17944
17:56:57.841,179932,-1.65,0.87,0.17,18.75,17945
17:56:57.841,179942,-2.13,1.72,-0.07,27.36,17946
17:56:57.841,179952,-1.72,0.99,-0.47,20.45,17947
17:56:57.841,179962,-0.53,1.08,0.03,12.09,17948
17:56:57.841,179972,-0.97,0.94,-0.30,13.85,17949
17:56:57.841,179982,-1.18,0.19,0.13,12.07,17950
17:56:57.841,179992,-1.13,-0.09,0.65,13.07,17951
17:56:57.841,180002,-1.10,0.20,0.71,13.27,17952
17:56:57.841,180012,-0.81,0.83,0.44,12.37,17953
17:56:57.843,180022,-0.73,1.08,0.36,13.52,17954
17:56:57.843,180032,-0.68,0.82,-0.04,10.62,17955
17:56:57.844,180042,-0.79,0.28,-0.21,8.65,17956
17:56:57.847,180052,-0.99,-0.12,-0.00,9.92,17957
17:56:57.851,180062,-1.12,-0.29,0.21,11.80,17958
17:56:57.853,180072,-1.25,-0.06,0.06,12.55,17959
17:56:57.853,180082,-1.09,0.42,-0.02,11.70,17960
17:56:57.853,180092,-0.87,0.62,-0.08,10.70,17961
17:56:57.863,180102,-0.83,0.55,-0.04,10.01,17962
17:56:57.869,180112,-0.97,0.39,0.04,10.49,17963
17:56:57.887,180122,-1.05,0.28,0.14,10.95,17964
17:56:57.888,180132,-1.01,0.27,0.19,10.65,17965
17:56:57.898,180142,-0.97,0.31,0.14,10.27,17966
17:56:57.912,180152,-0.95,0.41,0.13,10.45,17967
17:56:57.923,180162,-0.97,0.48,0.10,10.82,17968
17:56:57.928,180172,-0.98,0.47,0.06,10.86,17969
17:56:57.938,180182,-1.01,0.39,0.05,10.81,17970
17:56:57.952,180192,-1.04,0.33,0.04,10.89,17971
17:56:57.969,180202,-1.04,0.31,0.04,10.81,17972
17:56:57.973,180212,-1.01,0.31,0.02,10.58,17973
17:56:58.004,180222,-0.96,0.36,0.03,10.29,17974
17:56:58.021,180232,-0.93,0.41,0.04,10.13,17975
17:56:58.021,180242,-0.91,0.44,0.06,10.10,17976
17:56:58.022,180252,-0.91,0.48,0.08,10.35,17977
17:56:58.036,180262,-0.98,0.38,0.07,10.51,17978
17:56:58.036,180272,-1.00,0.48,0.12,11.15,17979
17:56:58.038,180282,-0.97,0.32,0.10,10.26,17980
17:56:58.053,180292,-0.98,0.41,0.12,10.66,17981
17:56:58.059,180302,-0.99,0.41,0.09,10.75,17982
17:56:58.069,180312,-0.99,0.40,0.09,10.69,17983
17:56:58.080,180322,-0.95,0.42,0.09,10.43,17984
17:56:58.098,180332,-0.94,0.45,0.08,10.44,17985
17:56:58.099,180342,-0.93,0.45,0.06,10.34,17986
17:56:58.115,180352,-0.97,0.43,0.07,10.66,17987
17:56:58.119,180362,-1.00,0.42,0.06,10.89,17988
17:56:58.132,180372,-1.00,0.42,0.06,10.84,17989
17:56:58.138,180382,-0.99,0.42,0.06,10.75,17990
17:56:58.153,180392,-0.99,0.45,0.08,10.88,17991
17:56:58.159,180402,-1.00,0.44,0.08,10.93,17992
17:56:58.173,180412,-1.00,0.44,0.07,10.96,17993
17:56:58.181,180422,-1.02,0.42,0.05,11.03,17994
17:56:58.190,180432,-1.02,0.41,0.02,10.99,17995
17:56:58.200,180442,-1.02,0.41,-0.02,10.97,17996
17:56:58.212,180452,-1.03,0.39,-0.06,11.02,17997
17:56:58.223,180462,-1.03,0.35,-0.10,10.89,17998
17:56:58.229,180472,-1.04,0.33,-0.12,10.99,17999
17:56:58.270,180482,-1.05,0.35,-0.11,11.09,18000
17:56:58.271,180492,-1.01,0.42,-0.10,11.03,18001
17:56:58.271,180502,-0.97,0.48,-0.12,10.90,18002
17:56:58.271,180512,-0.95,0.48,-0.13,10.70,18003
17:56:58.311,180522,-0.95,0.44,-0.12,10.56,18004
17:56:58.312,180532,-1.01,0.41,-0.12,10.91,18005
17:56:58.312,180542,-1.07,0.43,-0.12,11.61,18006
17:56:58.313,180552,-1.09,0.53,-0.15,12.22,18007
17:56:58.351,180562,-1.11,0.58,-0.20,12.66,18008
17:56:58.356,180572,-1.13,0.59,-0.25,12.97,18009
17:56:58.358,180582,-1.14,0.67,-0.27,13.45,18010
17:56:58.432,180592,-1.12,0.74,-0.32,13.82,18011
17:56:58.433,180602,-1.19,0.75,-0.27,14.36,18012
17:56:58.434,180612,-1.28,0.85,-0.37,15.84,18013
17:56:58.437,180622,-1.22,0.95,-0.56,16.47,18014
17:56:58.437,180632,-1.17,0.90,-0.56,15.78,18015
17:56:58.469,180642,-1.13,0.68,-0.32,13.57,18016
17:56:58.470,180652,-1.14,0.46,-0.07,12.28,18017
17:56:58.472,180662,-1.15,0.33,0.25,12.24,18018
17:56:58.472,180672,-1.12,0.32,0.43,12.44,18019
17:56:58.473,180682,-1.14,0.23,0.87,14.47,18020
17:56:58.475,180692,-1.22,0.21,1.04,16.11,18021
17:56:58.475,180702,-1.25,0.29,0.89,15.66,18022
17:56:58.475,180712,-1.13,0.33,0.94,15.03,18023
17:56:58.478,180722,-0.84,0.43,0.88,12.90,18024
17:56:58.489,180732,-0.59,0.58,0.73,10.98,18025
17:56:58.502,180742,-0.40,0.68,0.58,9.81,18026
17:56:58.511,180752,-0.38,0.60,0.57,9.12,18027
17:56:58.521,180762,-0.48,0.35,0.58,8.34,18028
17:56:58.533,180772,-0.50,0.22,0.66,8.61,18029
17:56:58.544,180782,-0.62,0.16,0.68,9.34,18030
17:56:58.549,180792,-0.58,0.27,0.68,9.35,18031
17:56:58.566,180802,-0.57,0.28,0.67,9.23,18032
17:56:58.571,180812,-0.52,0.24,0.67,8.79,18033
17:56:58.581,180822,-0.46,0.21,0.67,8.41,18034
17:56:58.595,180832,-0.44,0.21,0.66,8.22,18035
17:56:58.598,180842,-0.43,0.21,0.67,8.22,18036
17:56:58.610,180852,-0.44,0.19,0.66,8.11,18037
17:56:58.626,180862,-0.43,0.23,0.69,8.47,18038
17:56:58.629,180872,-0.41,0.27,0.70,8.54,18039
17:56:58.639,180882,-0.39,0.31,0.69,8.52,18040
17:56:58.655,180892,-0.36,0.35,0.65,8.24,18041
17:56:58.661,180902,-0.39,0.36,0.61,8.02,18042
17:56:58.676,180912,-0.39,0.35,0.57,7.74,18043
17:56:58.678,180922,-0.44,0.35,0.57,8.02,18044
17:56:58.691,180932,-0.49,0.33,0.58,8.24,18045
17:56:58.698,180942,-0.53,0.31,0.58,8.51,18046
17:56:58.708,180952,-0.55,0.33,0.59,8.76,18047
17:56:58.745,180962,-0.57,0.26,0.58,8.52,18048
17:56:58.747,180972,-0.56,0.36,0.60,8.98,18049
17:56:58.747,180982,-0.59,0.38,0.61,9.27,18050
17:56:58.750,180992,-0.64,0.37,0.62,9.69,18051
17:56:58.765,181002,-0.68,0.41,0.62,10.09,18052
17:56:58.770,181012,-0.74,0.43,0.58,10.32,18053
17:56:58.779,181022,-0.76,0.45,0.52,10.24,18054
17:56:58.793,181032,-0.81,0.46,0.45,10.31,18055
17:56:58.798,181042,-0.83,0.47,0.34,10.12,18056
17:56:58.814,181052,-0.82,0.48,0.25,9.81,18057
17:56:58.818,181062,-0.83,0.48,0.24,9.83,18058
17:56:58.834,181072,-0.84,0.48,0.23,9.88,18059
17:56:58.839,181082,-0.84,0.41,0.13,9.44,18060
17:56:58.850,181092,-0.85,0.36,0.11,9.29,18061
17:56:58.864,181102,-0.89,0.34,0.09,9.52,18062
17:56:58.869,181112,-0.89,0.30,-0.01,9.36,18063
17:56:58.879,181122,-0.82,0.29,-0.16,8.83,18064
17:56:58.888,181132,-0.69,0.30,-0.42,8.60,18065
17:56:58.906,181142,-0.48,0.33,-0.72,9.27,18066
17:56:58.908,181152,-0.49,0.29,-0.62,8.42,18067
17:56:58.920,181162,-0.72,0.21,-0.30,8.03,18068
17:56:58.934,181172,-0.84,0.13,-0.03,8.47,18069
17:56:58.939,181182,-0.82,0.08,0.15,8.38,18070
17:56:58.955,181192,-0.73,0.07,0.30,7.89,18071
17:56:58.958,181202,-0.64,0.10,0.31,7.15,18072
17:56:58.968,181212,-0.90,0.50,0.27,10.66,18073
17:56:58.982,181222,-2.13,1.97,-0.44,29.29,18074
17:56:59.022,181232,-2.13,2.00,-0.22,29.23,18075
17:56:59.025,181242,-1.04,0.74,-0.35,13.20,18076
17:56:59.025,181252,-0.29,0.55,-0.64,8.85,18077
17:56:59.028,181262,-1.04,0.33,-0.34,11.44,18078
17:56:59.065,181272,-1.26,0.31,0.24,13.20,18079
17:56:59.065,181282,-1.15,0.41,0.90,15.15,18080
17:56:59.065,181292,-0.96,0.84,0.73,14.65,18081
17:56:59.067,181302,-0.68,1.10,0.54,14.01,18082
17:56:59.068,181312,-0.64,1.16,0.18,13.38,18083
17:56:59.106,181322,-0.75,0.61,0.03,9.70,18084
17:56:59.106,181332,-0.99,0.00,-0.15,9.97,18085
17:56:59.216,181342,-1.15,-0.45,-0.09,12.40,18086
17:56:59.216,181352,-1.17,-0.18,0.04,11.81,18087
17:56:59.216,181362,-1.20,0.13,-0.04,12.05,18088
17:56:59.217,181372,-1.01,0.51,-0.13,11.41,18089
17:56:59.218,181382,-0.88,0.60,-0.18,10.78,18090
17:56:59.219,181392,-0.89,0.47,-0.12,10.19,18091
17:56:59.223,181402,-0.99,0.37,-0.05,10.57,18092
17:56:59.223,181412,-1.04,0.31,-0.03,10.82,18093
17:56:59.226,181422,-1.00,0.29,-0.02,10.45,18094
17:56:59.227,181432,-0.99,0.33,-0.00,10.38,18095
17:56:59.227,181442,-1.01,0.34,-0.05,10.71,18096
17:56:59.227,181452,-1.01,0.38,-0.06,10.78,18097
17:56:59.227,181462,-1.02,0.38,-0.08,10.95,18098
17:56:59.228,181472,-1.03,0.35,-0.08,10.93,18099
17:56:59.242,181482,-1.03,0.33,-0.06,10.85,18100
17:56:59.248,181492,-1.02,0.32,-0.04,10.65,18101
17:56:59.266,181502,-0.97,0.35,0.00,10.35,18102
17:56:59.269,181512,-0.94,0.41,0.03,10.24,18103
17:56:59.278,181522,-0.92,0.44,0.06,10.20,18104
17:56:59.289,181532,-0.92,0.46,0.05,10.27,18105
17:56:59.332,181542,-0.94,0.45,0.05,10.42,18106
17:56:59.332,181552,-0.98,0.42,0.05,10.72,18107
17:56:59.332,181562,-0.98,0.41,0.07,10.65,18108
17:56:59.334,181572,-0.99,0.42,0.07,10.75,18109
17:56:59.342,181582,-0.90,0.38,0.06,9.78,18110
17:56:59.348,181592,-0.92,0.44,0.06,10.19,18111
17:56:59.360,181602,-0.96,0.44,0.10,10.61,18112
17:56:59.369,181612,-0.97,0.41,0.12,10.60,18113
17:56:59.380,181622,-0.98,0.42,0.12,10.69,18114
17:56:59.395,181632,-0.98,0.36,0.09,10.50,18115
17:56:59.398,181642,-1.00,0.36,0.08,10.62,18116
17:56:59.411,181652,-1.02,0.35,0.08,10.85,18117
17:56:59.421,181662,-1.01,0.36,0.08,10.71,18118
17:56:59.428,181672,-0.95,0.45,0.05,10.49,18119
17:56:59.448,181682,-0.97,0.46,0.08,10.77,18120
17:56:59.448,181692,-1.00,0.47,0.10,11.09,18121
17:56:59.464,181702,-1.02,0.46,0.09,11.23,18122
17:56:59.470,181712,-1.00,0.46,0.07,11.05,18123
17:56:59.483,181722,-1.00,0.44,0.06,10.92,18124
17:56:59.488,181732,-1.02,0.40,0.02,10.99,18125
17:56:59.505,181742,-1.05,0.37,-0.00,11.13,18126
17:56:59.509,181752,-1.06,0.37,-0.03,11.24,18127
17:56:59.520,181762,-1.06,0.38,-0.05,11.25,18128
17:56:59.531,181772,-1.05,0.40,-0.07,11.23,18129
17:56:59.543,181782,-1.04,0.46,-0.07,11.36,18130
17:56:59.552,181792,-0.98,0.51,-0.07,11.13,18131
17:56:59.559,181802,-0.94,0.47,-0.08,10.59,18132
17:56:59.573,181812,-0.95,0.44,-0.08,10.50,18133
17:56:59.578,181822,-0.97,0.41,-0.08,10.57,18134
17:56:59.595,181832,-1.01,0.40,-0.06,10.87,18135
17:56:59.599,181842,-1.05,0.45,-0.03,11.40,18136
17:56:59.609,181852,-1.04,0.56,-0.02,11.80,18137
17:56:59.625,181862,-1.00,0.62,-0.03,11.76,18138
17:56:59.628,181872,-1.01,0.61,-0.06,11.83,18139
17:56:59.640,181882,-1.05,0.60,-0.07,12.12,18140
17:56:59.648,181892,-1.06,0.66,-0.14,12.53,18141
17:56:59.659,181902,-1.05,0.72,-0.21,12.88,18142
17:56:59.669,181912,-1.05,0.75,-0.24,13.12,18143
17:56:59.678,181922,-1.14,0.80,-0.36,14.45,18144
17:56:59.688,181932,-1.18,0.86,-0.62,15.90,18145
17:56:59.699,181942,-1.19,0.91,-0.73,16.67,18146
17:56:59.708,181952,-1.21,0.73,-0.58,15.25,18147
17:56:59.718,181962,-1.26,0.49,-0.40,14.13,18148
17:56:59.731,181972,-1.35,0.28,-0.10,13.80,18149
17:56:59.739,181982,-1.43,0.18,0.21,14.56,18150
17:56:59.749,181992,-1.50,-0.13,0.41,15.56,18151
17:56:59.759,182002,-1.44,-0.05,0.79,16.43,18152
17:56:59.777,182012,-1.22,-0.08,0.93,15.30,18153
17:56:59.778,182022,-1.30,0.04,0.96,16.18,18154
17:56:59.789,182032,-1.14,0.25,1.06,15.82,18155
17:56:59.829,182042,-0.72,0.35,1.06,13.30,18156
17:56:59.831,182052,-0.51,0.58,0.72,10.58,18157
17:56:59.831,182062,-0.48,1.07,0.38,12.32,18158
17:56:59.833,182072,-0.28,1.06,0.52,12.09,18159
17:56:59.870,182082,-0.47,0.51,0.72,10.05,18160
17:56:59.870,182092,-0.61,0.14,0.63,8.86,18161
17:56:59.871,182102,-0.61,0.13,0.76,9.85,18162
17:56:59.873,182112,-0.53,0.33,0.72,9.51,18163
17:56:59.911,182122,-0.49,0.32,0.71,9.20,18164
17:56:59.911,182132,-0.49,0.18,0.72,8.88,18165
17:56:59.913,182142,-0.47,0.21,0.70,8.73,18166
17:56:59.916,182152,-0.45,0.19,0.69,8.46,18167
17:56:59.952,182162,-0.46,0.15,0.65,8.13,18168
17:56:59.952,182172,-0.43,0.15,0.69,8.27,18169
17:56:59.954,182182,-0.41,0.19,0.71,8.37,18170
17:56:59.955,182192,-0.35,0.23,0.72,8.32,18171
17:56:59.958,182202,-0.32,0.33,0.71,8.46,18172
17:56:59.988,182212,-0.33,0.40,0.67,8.48,18173
17:56:59.989,182222,-0.33,0.42,0.65,8.46,18174
17:56:59.991,182232,-0.36,0.43,0.60,8.23,18175
17:57:00.026,182242,-0.40,0.43,0.57,8.18,18176
17:57:00.027,182252,-0.43,0.41,0.57,8.20,18177
17:57:00.028,182262,-0.48,0.40,0.58,8.51,18178
17:57:00.033,182272,-0.54,0.39,0.56,8.69,18179
17:57:00.058,182282,-0.58,0.41,0.54,8.89,18180
17:57:00.059,182292,-0.59,0.33,0.57,8.87,18181
17:57:00.059,182302,-0.61,0.36,0.63,9.48,18182
17:57:00.069,182312,-0.61,0.42,0.56,9.32,18183
17:57:00.078,182322,-0.64,0.44,0.57,9.64,18184
17:57:00.093,182332,-0.67,0.47,0.55,9.90,18185
17:57:00.099,182342,-0.72,0.50,0.51,10.12,18186
17:57:00.111,182352,-0.76,0.48,0.47,10.19,18187
17:57:00.119,182362,-0.79,0.47,0.43,10.16,18188
17:57:00.137,182372,-0.79,0.45,0.34,9.75,18189
17:57:00.138,182382,-0.77,0.40,0.15,8.84,18190
17:57:00.149,182392,-0.82,0.34,0.17,9.04,18191
17:57:00.158,182402,-0.88,0.32,0.22,9.59,18192
17:57:00.169,182412,-0.97,0.30,0.17,10.33,18193
17:57:00.178,182422,-1.02,0.20,0.07,10.38,18194
17:57:00.188,182432,-0.94,0.11,-0.04,9.53,18195
17:57:00.199,182442,-0.79,0.10,-0.16,8.14,18196
17:57:00.212,182452,-0.58,0.31,-0.31,7.28,18197
17:57:00.223,182462,-0.42,0.44,-0.38,7.17,18198
17:57:00.236,182472,-0.36,0.55,-0.47,8.09,18199
17:57:00.238,182482,-0.53,0.48,-0.26,7.64,18200
17:57:00.250,182492,-0.66,0.32,-0.04,7.31,18201
17:57:00.265,182502,-0.71,0.22,0.13,7.51,18202
17:57:00.269,182512,-0.84,0.25,0.20,8.95,18203
17:57:00.283,182522,-1.83,1.14,-0.12,21.61,18204
17:57:00.288,182532,-2.09,2.00,0.02,28.86,18205
17:57:00.301,182542,-1.44,1.50,-0.50,21.39,18206
17:57:00.308,182552,-0.38,0.76,-0.21,8.71,18207
17:57:00.327,182562,-0.74,0.89,-0.26,11.84,18208
17:57:00.334,182572,-1.29,0.44,0.03,13.61,18209
17:57:00.338,182582,-1.37,0.05,0.46,14.51,18210
17:57:00.348,182592,-1.23,0.06,0.76,14.51,18211
17:57:00.360,182602,-0.80,0.72,0.43,11.54,18212
17:57:00.376,182612,-0.67,1.08,0.27,12.98,18213
17:57:00.379,182622,-0.69,0.85,-0.02,10.98,18214
17:57:00.393,182632,-0.86,0.41,-0.16,9.61,18215
17:57:00.399,182642,-0.94,0.05,-0.16,9.52,18216
17:57:00.410,182652,-1.16,-0.15,-0.08,11.68,18217
17:57:00.418,182662,-1.22,-0.12,0.02,12.23,18218
17:57:00.459,182672,-1.08,0.25,-0.07,11.06,18219
17:57:00.472,182682,-0.93,0.59,-0.13,11.11,18220
17:57:00.473,182692,-0.82,0.62,-0.14,10.40,18221
17:57:00.475,182702,-0.90,0.48,-0.05,10.19,18222
17:57:00.496,182712,-1.00,0.39,-0.00,10.69,18223
17:57:00.497,182722,-1.04,0.31,0.03,10.84,18224
17:57:00.498,182732,-1.01,0.32,-0.00,10.54,18225
17:57:00.499,182742,-0.97,0.38,-0.05,10.40,18226
17:57:00.535,182752,-0.98,0.42,-0.08,10.65,18227
17:57:00.535,182762,-0.99,0.41,-0.07,10.73,18228
17:57:00.537,182772,-1.00,0.38,-0.06,10.70,18229
17:57:00.538,182782,-1.00,0.34,-0.02,10.60,18230
17:57:00.577,182792,-1.01,0.35,0.01,10.71,18231
17:57:00.577,182802,-0.98,0.39,0.02,10.54,18232
17:57:00.578,182812,-0.95,0.42,0.02,10.35,18233
17:57:00.579,182822,-0.94,0.43,0.02,10.32,18234
17:57:00.687,182832,-0.93,0.43,0.03,10.26,18235
17:57:00.687,182842,-0.92,0.45,0.04,10.20,18236
17:57:00.720,182852,-0.92,0.47,0.03,10.31,18237
17:57:00.722,182862,-0.94,0.44,0.05,10.38,18238
17:57:00.724,182872,-0.97,0.41,0.07,10.53,18239
17:57:00.724,182882,-0.96,0.40,0.09,10.43,18240
17:57:00.726,182892,-0.94,0.41,0.11,10.32,18241
17:57:00.728,182902,-0.91,0.43,0.12,10.18,18242
17:57:00.728,182912,-0.90,0.44,0.15,10.18,18243
17:57:00.728,182922,-0.91,0.45,0.14,10.27,18244
17:57:00.728,182932,-0.92,0.44,0.14,10.30,18245
17:57:00.728,182942,-0.95,0.40,0.14,10.39,18246
17:57:00.728,182952,-0.99,0.38,0.13,10.69,18247
17:57:00.728,182962,-1.01,0.40,0.13,10.94,18248
17:57:00.736,182972,-1.00,0.40,0.11,10.83,18249
17:57:00.739,182982,-0.99,0.40,0.10,10.72,18250
17:57:00.749,182992,-0.99,0.43,0.08,10.81,18251
17:57:00.760,183002,-0.99,0.42,0.09,10.79,18252
17:57:00.769,183012,-0.99,0.43,0.09,10.86,18253
17:57:00.779,183022,-1.00,0.47,0.07,11.08,18254
17:57:00.788,183032,-1.00,0.48,0.06,11.11,18255
17:57:00.798,183042,-0.99,0.49,0.02,11.09,18256
17:57:00.810,183052,-1.00,0.50,0.02,11.19,18257
17:57:00.822,183062,-1.03,0.47,0.02,11.33,18258
17:57:00.831,183072,-1.03,0.46,-0.00,11.29,18259
17:57:00.841,183082,-1.03,0.42,-0.04,11.14,18260
17:57:00.848,183092,-1.05,0.38,-0.06,11.15,18261
17:57:00.859,183102,-1.07,0.37,-0.07,11.30,18262
17:57:00.872,183112,-1.04,0.43,-0.11,11.25,18263
17:57:00.878,183122,-0.99,0.47,-0.13,11.04,18264
17:57:00.888,183132,-0.96,0.48,-0.14,10.86,18265
17:57:00.903,183142,-0.96,0.46,-0.14,10.76,18266
17:57:00.908,183152,-1.00,0.42,-0.14,10.97,18267
17:57:00.919,183162,-1.06,0.45,-0.15,11.62,18268
17:57:00.928,183172,-1.10,0.51,-0.15,12.21,18269
17:57:00.945,183182,-1.06,0.58,-0.16,12.23,18270
17:57:00.948,183192,-1.06,0.61,-0.19,12.36,18271
17:57:00.961,183202,-1.05,0.65,-0.19,12.48,18272
17:57:00.976,183212,-1.02,0.71,-0.22,12.60,18273
17:57:00.978,183222,-1.00,0.74,-0.28,12.76,18274
17:57:00.996,183232,-1.03,0.69,-0.23,12.59,18275
17:57:00.998,183242,-1.16,0.69,-0.33,13.93,18276
17:57:01.012,183252,-1.22,0.76,-0.59,15.49,18277
17:57:01.020,183262,-1.21,0.80,-0.62,15.75,18278
17:57:01.038,183272,-1.21,0.63,-0.41,14.27,18279
17:57:01.038,183282,-1.26,0.44,-0.22,13.54,18280
17:57:01.053,183292,-1.32,0.23,0.13,13.49,18281
17:57:01.059,183302,-1.40,0.14,0.37,14.55,18282
17:57:01.076,183312,-1.24,0.22,0.56,13.75,18283
17:57:01.079,183322,-1.26,-0.02,0.85,15.20,18284
17:57:01.088,183332,-1.20,0.00,1.01,15.69,18285
17:57:01.106,183342,-1.27,0.10,1.09,16.76,18286
17:57:01.110,183352,-1.02,0.31,1.12,15.47,18287
17:57:01.123,183362,-0.75,0.49,0.85,12.34,18288
17:57:01.128,183372,-0.58,0.60,0.71,10.97,18289
17:57:01.146,183382,-0.33,0.82,0.63,10.82,18290
17:57:01.148,183392,-0.19,0.73,0.76,10.71,18291
17:57:01.188,183402,-0.49,0.36,0.72,9.46,18292
17:57:01.188,183412,-0.52,0.13,0.73,9.07,18293
17:57:01.189,183422,-0.36,0.32,0.80,9.34,18294
17:57:01.191,183432,-0.45,0.39,0.64,8.77,18295
17:57:01.228,183442,-0.48,0.37,0.69,9.18,18296
17:57:01.229,183452,-0.42,0.26,0.74,8.89,18297
17:57:01.230,183462,-0.38,0.26,0.69,8.27,18298
17:57:01.231,183472,-0.37,0.20,0.68,8.01,18299
17:57:01.269,183482,-0.37,0.17,0.72,8.27,18300
17:57:01.270,183492,-0.37,0.18,0.67,7.85,18301
17:57:01.272,183502,-0.35,0.21,0.67,7.82,18302
17:57:01.272,183512,-0.32,0.28,0.61,7.41,18303
17:57:01.305,183522,-0.31,0.34,0.65,8.00,18304
17:57:01.307,183532,-0.28,0.40,0.61,7.85,18305
17:57:01.307,183542,-0.34,0.46,0.58,8.14,18306
17:57:01.308,183552,-0.41,0.46,0.49,7.82,18307
17:57:01.347,183562,-0.48,0.39,0.53,8.15,18308
17:57:01.347,183572,-0.52,0.38,0.57,8.58,18309
17:57:01.348,183582,-0.57,0.32,0.58,8.74,18310
17:57:01.350,183592,-0.60,0.33,0.59,9.05,18311
17:57:01.385,183602,-0.59,0.35,0.60,9.12,18312
17:57:01.387,183612,-0.58,0.36,0.60,9.06,18313
17:57:01.387,183622,-0.59,0.38,0.61,9.24,18314
17:57:01.388,183632,-0.59,0.45,0.58,9.40,18315
17:57:01.427,183642,-0.65,0.48,0.62,10.23,18316
17:57:01.427,183652,-0.69,0.50,0.61,10.47,18317
17:57:01.428,183662,-0.75,0.53,0.57,10.82,18318
17:57:01.429,183672,-0.80,0.56,0.50,10.93,18319
17:57:01.469,183682,-0.80,0.54,0.36,10.32,18320
17:57:01.469,183692,-0.81,0.48,0.27,9.75,18321
17:57:01.469,183702,-0.85,0.40,0.19,9.55,18322
17:57:01.471,183712,-0.98,0.32,0.21,10.49,18323
17:57:01.510,183722,-0.97,0.34,0.16,10.36,18324
17:57:01.511,183732,-0.94,0.31,0.06,9.89,18325
17:57:01.514,183742,-0.87,0.30,-0.02,9.18,18326
17:57:01.515,183752,-0.76,0.31,-0.17,8.36,18327
17:57:01.548,183762,-0.60,0.36,-0.35,7.80,18328
17:57:01.548,183772,-0.40,0.42,-0.59,8.28,18329
17:57:01.549,183782,-0.35,0.50,-0.71,9.33,18330
17:57:01.550,183792,-0.58,0.38,-0.40,7.99,18331
17:57:01.589,183802,-0.75,0.20,-0.12,7.89,18332
17:57:01.589,183812,-0.83,0.07,0.07,8.33,18333
17:57:01.590,183822,-0.82,0.02,0.18,8.41,18334
17:57:01.592,183832,-0.78,0.07,0.29,8.31,18335
17:57:01.626,183842,-0.88,0.38,0.31,10.06,18336
17:57:01.627,183852,-1.95,1.44,-0.02,24.23,18337
17:57:01.628,183862,-2.06,2.00,-0.22,28.75,18338
17:57:01.629,183872,-1.74,1.16,-0.70,22.04,18339
17:57:01.639,183882,-0.30,0.45,-0.08,5.44,18340
17:57:01.652,183892,-1.09,0.39,-0.40,12.30,18341
17:57:01.659,183902,-1.41,0.13,0.15,14.20,18342
17:57:01.670,183912,-1.32,0.16,0.72,15.13,18343
17:57:01.678,183922,-0.89,0.60,0.70,12.83,18344
17:57:01.692,183932,-0.76,1.12,0.45,14.28,18345
17:57:01.698,183942,-0.54,1.21,0.28,13.56,18346
17:57:01.715,183952,-0.75,0.71,0.06,10.32,18347
17:57:01.720,183962,-0.90,0.24,-0.25,9.64,18348
17:57:01.730,183972,-1.06,-0.22,-0.21,10.99,18349
17:57:01.744,183982,-1.21,-0.29,-0.04,12.41,18350
17:57:01.758,183992,-1.27,-0.06,-0.11,12.80,18351
17:57:01.760,184002,-1.09,0.39,-0.17,11.69,18352
17:57:01.773,184012,-0.89,0.57,-0.17,10.72,18353
17:57:01.779,184022,-0.86,0.48,-0.12,9.88,18354
17:57:01.791,184032,-1.01,0.37,-0.05,10.74,18355
17:57:01.801,184042,-1.08,0.30,0.03,11.17,18356
17:57:01.808,184052,-1.04,0.29,0.05,10.76,18357
17:57:01.824,184062,-0.98,0.30,0.06,10.30,18358
17:57:01.828,184072,-1.00,0.35,0.04,10.62,18359
17:57:01.840,184082,-1.01,0.37,0.02,10.75,18360
17:57:01.849,184092,-1.01,0.34,-0.02,10.68,18361
17:57:01.858,184102,-1.02,0.35,-0.04,10.84,18362
17:57:01.873,184112,-1.02,0.38,-0.07,10.85,18363
17:57:01.879,184122,-1.00,0.37,-0.07,10.71,18364
17:57:01.888,184132,-0.99,0.36,-0.07,10.54,18365
17:57:01.903,184142,-0.97,0.38,-0.04,10.41,18366
17:57:01.917,184152,-0.94,0.40,-0.00,10.27,18367
17:57:01.918,184162,-0.93,0.44,0.02,10.32,18368
17:57:01.936,184172,-0.92,0.48,0.04,10.34,18369
17:57:01.939,184182,-0.93,0.44,0.04,10.26,18370
17:57:01.950,184192,-0.95,0.41,0.07,10.37,18371
17:57:01.961,184202,-0.97,0.42,0.08,10.56,18372
17:57:01.971,184212,-0.97,0.45,0.11,10.74,18373
17:57:01.986,184222,-0.91,0.37,0.08,9.85,18374
17:57:01.990,184232,-0.87,0.40,0.09,9.67,18375
17:57:02.002,184242,-0.91,0.44,0.09,10.20,18376
17:57:02.009,184252,-0.98,0.49,0.11,10.98,18377
17:57:02.023,184262,-0.96,0.43,0.08,10.58,18378
17:57:02.030,184272,-0.95,0.41,0.08,10.34,18379
17:57:02.038,184282,-0.96,0.37,0.05,10.25,18380
17:57:02.048,184292,-0.99,0.36,0.06,10.56,18381
17:57:02.059,184302,-0.99,0.39,0.08,10.67,18382
17:57:02.069,184312,-0.99,0.43,0.08,10.79,18383
17:57:02.080,184322,-0.96,0.47,0.10,10.71,18384
17:57:02.092,184332,-0.93,0.48,0.12,10.56,18385
17:57:02.101,184342,-0.97,0.48,0.12,10.83,18386
17:57:02.109,184352,-1.00,0.47,0.12,11.13,18387
17:57:02.128,184362,-1.00,0.46,0.12,11.06,18388
17:57:02.129,184372,-1.00,0.45,0.09,11.02,18389
17:57:02.142,184382,-1.03,0.43,0.04,11.15,18390
17:57:02.148,184392,-1.03,0.43,0.02,11.18,18391
17:57:02.158,184402,-1.03,0.42,-0.02,11.15,18392
17:57:02.169,184412,-1.05,0.39,-0.05,11.25,18393
17:57:02.186,184422,-1.05,0.38,-0.05,11.18,18394
17:57:02.190,184432,-1.03,0.40,-0.06,11.12,18395
17:57:02.227,184442,-1.00,0.43,-0.07,10.93,18396
17:57:02.228,184452,-0.99,0.45,-0.08,10.91,18397
17:57:02.229,184462,-0.99,0.43,-0.09,10.82,18398
17:57:02.231,184472,-0.99,0.41,-0.10,10.75,18399
17:57:02.269,184482,-1.02,0.41,-0.11,10.99,18400
17:57:02.269,184492,-1.06,0.44,-0.10,11.48,18401
17:57:02.270,184502,-1.09,0.51,-0.14,12.11,18402
17:57:02.272,184512,-1.10,0.53,-0.14,12.27,18403
17:57:02.306,184522,-1.10,0.53,-0.17,12.30,18404
17:57:02.307,184532,-1.08,0.56,-0.20,12.30,18405
17:57:02.308,184542,-1.06,0.60,-0.24,12.37,18406
17:57:02.309,184552,-1.03,0.62,-0.26,12.36,18407
17:57:02.347,184562,-1.05,0.62,-0.25,12.51,18408
17:57:02.349,184572,-1.14,0.66,-0.29,13.50,18409
17:57:02.349,184582,-1.18,0.73,-0.48,14.71,18410
17:57:02.351,184592,-1.18,0.81,-0.58,15.46,18411
17:57:02.389,184602,-1.12,0.73,-0.47,14.19,18412
17:57:02.390,184612,-1.13,0.61,-0.27,13.12,18413
17:57:02.391,184622,-1.15,0.50,-0.03,12.48,18414
17:57:02.392,184632,-1.20,0.44,0.25,13.01,18415
17:57:02.428,184642,-1.09,0.42,0.33,12.10,18416
17:57:02.430,184652,-1.26,0.11,0.70,14.43,18417
17:57:02.431,184662,-1.10,0.12,0.88,14.14,18418
17:57:02.436,184672,-1.11,0.10,0.97,14.80,18419
17:57:02.438,184682,-1.19,0.12,1.15,16.59,18420
17:57:02.453,184692,-0.97,0.30,1.09,14.93,18421
17:57:02.459,184702,-0.72,0.44,0.80,11.64,18422
17:57:02.477,184712,-0.57,0.58,0.67,10.53,18423
17:57:02.478,184722,-0.40,0.68,0.59,9.83,18424
17:57:02.489,184732,-0.49,0.46,0.80,10.43,18425
17:57:02.498,184742,-0.55,0.22,0.72,9.34,18426
17:57:02.509,184752,-0.40,0.26,0.76,8.98,18427
17:57:02.520,184762,-0.58,0.23,0.70,9.38,18428
17:57:02.531,184772,-0.55,0.33,0.74,9.80,18429
17:57:02.539,184782,-0.47,0.30,0.74,9.28,18430
17:57:02.548,184792,-0.42,0.27,0.70,8.57,18431
17:57:02.559,184802,-0.41,0.24,0.66,8.15,18432
17:57:02.586,184812,-0.40,0.21,0.70,8.30,18433
17:57:02.587,184822,-0.38,0.18,0.71,8.26,18434
17:57:02.587,184832,-0.37,0.18,0.69,8.08,18435
17:57:02.598,184842,-0.34,0.25,0.70,8.16,18436
17:57:02.616,184852,-0.31,0.31,0.66,7.93,18437
17:57:02.619,184862,-0.30,0.35,0.67,8.12,18438
17:57:02.628,184872,-0.39,0.39,0.70,8.92,18439
17:57:02.638,184882,-0.32,0.43,0.58,7.91,18440
17:57:02.649,184892,-0.36,0.40,0.52,7.54,18441
17:57:02.660,184902,-0.42,0.37,0.50,7.45,18442
17:57:02.669,184912,-0.50,0.34,0.52,7.98,18443
17:57:02.681,184922,-0.58,0.31,0.55,8.54,18444
17:57:02.688,184932,-0.64,0.30,0.55,8.96,18445
17:57:02.699,184942,-0.64,0.33,0.56,9.11,18446
17:57:02.709,184952,-0.63,0.36,0.56,9.15,18447
17:57:02.718,184962,-0.61,0.39,0.58,9.32,18448
17:57:02.732,184972,-0.65,0.43,0.56,9.61,18449
17:57:02.740,184982,-0.70,0.47,0.57,10.16,18450
17:57:02.751,184992,-0.75,0.49,0.55,10.50,18451
17:57:02.765,185002,-0.81,0.49,0.50,10.65,18452
17:57:02.770,185012,-0.86,0.47,0.43,10.64,18453
17:57:02.778,185022,-0.85,0.44,0.34,10.18,18454
17:57:02.790,185032,-0.85,0.37,0.26,9.67,18455
17:57:02.801,185042,-0.88,0.27,0.19,9.41,18456
17:57:02.808,185052,-0.91,0.30,0.19,9.75,18457
17:57:02.818,185062,-0.92,0.32,0.15,9.90,18458
17:57:02.828,185072,-0.90,0.34,0.08,9.70,18459
17:57:02.844,185082,-0.89,0.34,0.01,9.55,18460
17:57:02.848,185092,-0.81,0.31,-0.12,8.79,18461
17:57:02.864,185102,-0.67,0.29,-0.32,8.01,18462
17:57:02.868,185112,-0.55,0.31,-0.60,8.71,18463
17:57:02.910,185122,-0.50,0.27,-0.70,9.03,18464
17:57:02.911,185132,-0.67,0.23,-0.41,8.19,18465
17:57:02.911,185142,-0.79,0.16,-0.13,8.11,18466
17:57:02.914,185152,-0.82,0.07,0.11,8.28,18467
17:57:02.950,185162,-0.76,0.05,0.26,8.09,18468
17:57:02.951,185172,-0.72,-0.00,0.27,7.68,18469
17:57:02.953,185182,-0.82,0.10,0.30,8.82,18470
17:57:02.954,185192,-1.75,1.11,0.09,20.78,18471
17:57:02.993,185202,-2.13,2.00,0.32,29.33,18472
17:57:02.993,185212,-2.05,1.22,-0.70,24.87,18473
17:57:02.994,185222,-0.14,0.37,-0.62,7.37,18474
17:57:02.995,185232,-0.26,0.73,-0.50,9.17,18475
17:57:02.998,185242,-0.78,0.75,-0.12,10.86,18476
17:57:03.034,185252,-1.19,0.87,0.48,15.51,18477
17:57:03.036,185262,-1.02,0.86,0.99,16.63,18478
17:57:03.036,185272,-0.87,0.91,0.58,13.87,18479
17:57:03.038,185282,-0.71,1.07,0.32,13.28,18480
17:57:03.071,185292,-0.77,0.64,0.07,9.99,18481
17:57:03.073,185302,-1.01,0.09,-0.14,10.22,18482
17:57:03.076,185312,-1.10,-0.25,-0.03,11.28,18483
17:57:03.110,185322,-1.22,-0.35,0.00,12.65,18484
17:57:03.110,185332,-1.27,0.01,-0.06,12.69,18485
17:57:03.112,185342,-1.08,0.40,-0.19,11.69,18486
17:57:03.113,185352,-0.91,0.51,-0.18,10.60,18487
17:57:03.119,185362,-0.90,0.41,-0.09,9.98,18488
17:57:03.129,185372,-1.02,0.35,-0.04,10.79,18489
17:57:03.143,185382,-1.07,0.28,0.03,11.09,18490
17:57:03.149,185392,-1.03,0.26,0.02,10.58,18491
17:57:03.160,185402,-1.01,0.28,0.04,10.51,18492
17:57:03.174,185412,-1.02,0.33,0.03,10.73,18493
17:57:03.180,185422,-1.02,0.41,-0.00,10.93,18494
17:57:03.197,185432,-1.00,0.44,-0.02,10.92,18495
17:57:03.198,185442,-1.00,0.41,-0.01,10.81,18496
17:57:03.209,185452,-1.00,0.38,-0.01,10.71,18497
17:57:03.223,185462,-0.99,0.36,-0.01,10.52,18498
17:57:03.231,185472,-0.97,0.39,0.02,10.46,18499
17:57:03.241,185482,-0.97,0.40,0.02,10.46,18500
17:57:03.249,185492,-0.96,0.40,0.03,10.42,18501
17:57:03.261,185502,-0.97,0.40,0.06,10.48,18502
17:57:03.300,185512,-0.98,0.41,0.09,10.67,18503
17:57:03.300,185522,-1.00,0.39,0.11,10.84,18504
17:57:03.302,185532,-1.00,0.42,0.12,10.96,18505
17:57:03.303,185542,-1.00,0.29,0.09,10.46,18506
17:57:03.308,185552,-0.95,0.33,0.12,10.16,18507
17:57:03.322,185562,-0.96,0.34,0.12,10.27,18508
17:57:03.332,185572,-1.00,0.49,0.16,11.29,18509
17:57:03.340,185582,-0.95,0.44,0.11,10.55,18510
17:57:03.351,185592,-0.95,0.43,0.11,10.51,18511
17:57:03.361,185602,-0.94,0.41,0.09,10.29,18512
17:57:03.372,185612,-0.97,0.38,0.08,10.44,18513
17:57:03.378,185622,-1.00,0.39,0.07,10.73,18514
17:57:03.393,185632,-1.01,0.40,0.06,10.88,18515
17:57:03.399,185642,-1.00,0.40,0.04,10.81,18516
17:57:03.417,185652,-0.96,0.42,0.02,10.48,18517
17:57:03.418,185662,-0.95,0.43,0.01,10.41,18518
17:57:03.432,185672,-0.96,0.42,0.02,10.52,18519
17:57:03.441,185682,-0.97,0.44,0.04,10.64,18520
17:57:03.449,185692,-0.95,0.45,0.04,10.54,18521
17:57:03.464,185702,-0.97,0.42,0.04,10.61,18522
17:57:03.469,185712,-0.98,0.42,0.02,10.70,18523
17:57:03.479,185722,-0.99,0.41,-0.01,10.71,18524
17:57:03.488,185732,-1.02,0.36,-0.03,10.84,18525
17:57:03.498,185742,-1.03,0.34,-0.06,10.85,18526
17:57:03.509,185752,-1.02,0.39,-0.08,10.96,18527
17:57:03.521,185762,-0.97,0.47,-0.10,10.85,18528
17:57:03.539,185772,-0.91,0.53,-0.14,10.60,18529
17:57:03.539,185782,-0.87,0.51,-0.16,10.24,18530
17:57:03.549,185792,-0.86,0.48,-0.15,9.96,18531
17:57:03.560,185802,-0.90,0.45,-0.13,10.17,18532
17:57:03.569,185812,-1.00,0.48,-0.11,11.16,18533
17:57:03.580,185822,-1.06,0.56,-0.10,12.07,18534
17:57:03.589,185832,-1.04,0.67,-0.10,12.41,18535
17:57:03.598,185842,-1.03,0.68,-0.15,12.43,18536
17:57:03.608,185852,-1.09,0.64,-0.20,12.81,18537
17:57:03.619,185862,-1.13,0.66,-0.22,13.31,18538
17:57:03.670,185872,-1.14,0.71,-0.22,13.55,18539
17:57:03.670,185882,-1.22,0.75,-0.44,15.00,18540
17:57:03.671,185892,-1.29,0.77,-0.62,16.28,18541
17:57:03.673,185902,-1.31,0.88,-0.71,17.35,18542
17:57:03.675,185912,-1.28,0.75,-0.45,15.47,18543
17:57:03.712,185922,-1.31,0.55,-0.24,14.39,18544
17:57:03.712,185932,-1.33,0.38,0.02,13.79,18545
17:57:03.712,185942,-1.12,0.45,0.34,12.57,18546
17:57:03.714,185952,-1.30,0.13,0.65,14.61,18547
17:57:03.752,185962,-1.26,0.07,0.89,15.44,18548
17:57:03.753,185972,-1.28,-0.08,1.06,16.67,18549
17:57:03.754,185982,-1.38,-0.03,1.14,17.87,18550
17:57:03.755,185992,-1.22,0.16,1.15,16.86,18551
17:57:03.794,186002,-0.77,0.34,0.91,12.40,18552
17:57:03.794,186012,-0.48,0.49,0.82,10.71,18553
17:57:03.795,186022,-0.50,0.72,0.80,11.83,18554
17:57:03.796,186032,-0.45,0.78,0.58,10.66,18555
17:57:03.798,186042,-0.41,0.39,0.72,9.20,18556
17:57:03.836,186052,-0.62,0.11,0.69,9.31,18557
17:57:03.837,186062,-0.57,0.17,0.77,9.73,18558
17:57:03.837,186072,-0.68,0.20,0.75,10.30,18559
17:57:03.838,186082,-0.53,0.29,0.70,9.24,18560
17:57:03.868,186092,-0.47,0.19,0.71,8.74,18561
17:57:03.869,186102,-0.42,0.18,0.69,8.30,18562
17:57:03.871,186112,-0.44,0.10,0.70,8.31,18563
17:57:03.888,186122,-0.42,0.08,0.68,8.02,18564
17:57:03.889,186132,-0.42,0.08,0.75,8.60,18565
17:57:03.899,186142,-0.40,0.10,0.74,8.47,18566
17:57:03.908,186152,-0.36,0.18,0.73,8.32,18567
17:57:03.925,186162,-0.34,0.26,0.75,8.62,18568
17:57:03.929,186172,-0.33,0.33,0.71,8.48,18569
17:57:03.938,186182,-0.33,0.36,0.66,8.20,18570
17:57:03.948,186192,-0.33,0.35,0.60,7.73,18571
17:57:03.959,186202,-0.35,0.34,0.61,7.82,18572
17:57:03.969,186212,-0.38,0.36,0.63,8.20,18573
17:57:03.979,186222,-0.44,0.38,0.61,8.43,18574
17:57:03.989,186232,-0.47,0.39,0.61,8.66,18575
17:57:03.999,186242,-0.48,0.40,0.64,8.94,18576
17:57:04.011,186252,-0.49,0.42,0.66,9.26,18577
17:57:04.021,186262,-0.51,0.48,0.69,9.85,18578
17:57:04.032,186272,-0.55,0.48,0.60,9.50,18579
17:57:04.042,186282,-0.61,0.46,0.60,9.76,18580
17:57:04.048,186292,-0.69,0.43,0.58,9.99,18581
17:57:04.058,186302,-0.75,0.46,0.53,10.27,18582
17:57:04.070,186312,-0.76,0.44,0.38,9.58,18583
17:57:04.079,186322,-0.83,0.46,0.39,10.33,18584
17:57:04.090,186332,-0.78,0.45,0.28,9.45,18585
17:57:04.099,186342,-0.82,0.38,0.24,9.35,18586
17:57:04.109,186352,-0.91,0.29,0.25,9.89,18587
17:57:04.119,186362,-1.00,0.31,0.25,10.75,18588
17:57:04.138,186372,-1.03,0.18,0.09,10.53,18589
17:57:04.138,186382,-0.94,0.12,-0.05,9.51,18590
17:57:04.148,186392,-0.72,0.18,-0.31,8.02,18591
17:57:04.163,186402,-0.47,0.30,-0.62,8.29,18592
17:57:04.170,186412,-0.21,0.59,-0.84,10.51,18593
17:57:04.179,186422,-0.34,0.55,-0.57,8.61,18594
17:57:04.189,186432,-0.60,0.42,-0.14,7.45,18595
17:57:04.198,186442,-0.73,0.22,0.10,7.65,18596
17:57:04.211,186452,-0.71,0.11,0.29,7.73,18597
17:57:04.219,186462,-0.77,0.11,0.38,8.62,18598
17:57:04.236,186472,-1.37,0.73,0.26,15.71,18599
17:57:04.239,186482,-2.13,2.00,0.10,29.17,18600
17:57:04.248,186492,-2.06,1.52,-0.54,26.15,18601
17:57:04.259,186502,-0.60,0.35,-0.22,7.31,18602
17:57:04.271,186512,-0.79,0.51,-0.43,10.33,18603
17:57:04.279,186522,-1.40,0.12,0.03,14.07,18604
17:57:04.288,186532,-1.52,0.12,0.47,15.92,18605
17:57:04.298,186542,-1.07,0.33,0.91,14.41,18606
17:57:04.308,186552,-0.71,1.01,0.59,13.70,18607
17:57:04.326,186562,-0.48,1.31,0.29,14.30,18608
17:57:04.328,186572,-0.42,1.27,0.02,13.35,18609
17:57:04.407,186582,-0.78,0.51,-0.10,9.33,18610
17:57:04.408,186592,-0.96,-0.05,-0.15,9.78,18611
17:57:04.409,186602,-1.16,-0.18,0.02,11.73,18612
17:57:04.411,186612,-1.20,-0.09,0.04,12.06,18613
17:57:04.412,186622,-1.14,0.26,-0.07,11.66,18614
17:57:04.413,186632,-0.94,0.62,-0.20,11.46,18615
17:57:04.449,186642,-0.82,0.60,-0.20,10.38,18616
17:57:04.449,186652,-0.90,0.42,-0.13,10.02,18617
17:57:04.450,186662,-1.06,0.30,-0.08,11.04,18618
17:57:04.451,186672,-1.09,0.23,-0.05,11.14,18619
17:57:04.491,186682,-1.04,0.27,-0.05,10.72,18620
17:57:04.491,186692,-1.01,0.33,-0.10,10.69,18621
17:57:04.491,186702,-1.01,0.34,-0.10,10.69,18622
17:57:04.491,186712,-1.01,0.34,-0.11,10.69,18623
17:57:04.493,186722,-1.00,0.32,-0.10,10.57,18624
17:57:04.494,186732,-1.00,0.37,-0.05,10.71,18625
17:57:04.531,186742,-0.98,0.42,0.00,10.68,18626
17:57:04.532,186752,-0.96,0.41,0.03,10.49,18627
17:57:04.533,186762,-0.95,0.38,0.04,10.22,18628
17:57:04.534,186772,-0.93,0.41,0.06,10.21,18629
17:57:04.569,186782,-0.91,0.47,0.06,10.23,18630
17:57:04.569,186792,-0.88,0.51,0.06,10.19,18631
17:57:04.620,186802,-0.93,0.46,0.06,10.39,18632
17:57:04.620,186812,-0.96,0.41,0.11,10.45,18633
