timestamp,time,ax,ay,az,mag,time2
16:35:18.000,63155,-0.90,-0.54,-0.00,10.49,6267
16:35:18.002,63165,-0.89,-0.53,-0.02,10.39,6268
16:35:18.002,63175,-0.90,-0.55,-0.02,10.56,6269
16:35:18.012,63185,-0.90,-0.55,-0.01,10.57,6270
16:35:18.023,63195,-0.91,-0.55,-0.02,10.62,6271
16:35:18.030,63205,-0.89,-0.53,-0.01,10.41,6272
16:35:18.040,63215,-0.90,-0.54,-0.01,10.48,6273
16:35:18.051,63225,-0.90,-0.53,-0.01,10.44,6274
16:35:18.063,63235,-0.90,-0.55,-0.00,10.49,6275
16:35:18.070,63245,-0.89,-0.54,0.01,10.43,6276
16:35:18.084,63255,-0.89,-0.56,0.01,10.49,6277
16:35:18.092,63265,-0.88,-0.56,0.01,10.44,6278
16:35:18.101,63275,-0.89,-0.55,0.01,10.45,6279
16:35:18.111,63285,-0.89,-0.55,0.02,10.46,6280
16:35:18.122,63295,-0.90,-0.54,0.01,10.44,6281
16:35:18.130,63305,-0.89,-0.54,0.02,10.44,6282
16:35:18.144,63315,-0.90,-0.56,0.02,10.56,6283
16:35:18.149,63325,-0.89,-0.56,0.02,10.54,6284
16:35:18.160,63335,-0.89,-0.56,0.02,10.50,6285
16:35:18.170,63345,-0.88,-0.56,0.02,10.44,6286
16:35:18.181,63355,-0.88,-0.55,0.03,10.42,6287
16:35:18.195,63365,-0.89,-0.55,0.02,10.47,6288
16:35:18.200,63375,-0.89,-0.55,0.01,10.47,6289
16:35:18.210,63385,-0.89,-0.55,0.01,10.45,6290
16:35:18.221,63395,-0.89,-0.54,0.01,10.43,6291
16:35:18.230,63405,-0.89,-0.54,0.00,10.44,6292
16:35:18.239,63415,-0.90,-0.53,-0.01,10.49,6293
16:35:18.250,63425,-0.91,-0.54,-0.01,10.54,6294
16:35:18.261,63435,-0.90,-0.55,-0.00,10.57,6295
16:35:18.270,63445,-0.91,-0.54,0.01,10.58,6296
16:35:18.286,63455,-0.89,-0.55,0.01,10.48,6297
16:35:18.290,63465,-0.89,-0.55,0.03,10.48,6298
16:35:18.301,63475,-0.88,-0.55,0.02,10.41,6299
16:35:18.310,63485,-0.89,-0.56,0.02,10.46,6300
16:35:18.320,63495,-0.88,-0.55,0.01,10.38,6301
16:35:18.332,63505,-0.89,-0.56,0.00,10.47,6302
16:35:18.344,63515,-0.89,-0.55,0.00,10.46,6303
16:35:18.350,63525,-0.89,-0.56,-0.01,10.53,6304
16:35:18.360,63535,-0.90,-0.55,-0.01,10.50,6305
16:35:18.375,63545,-0.89,-0.55,-0.01,10.44,6306
16:35:18.379,63555,-0.89,-0.54,-0.00,10.44,6307
16:35:18.389,63565,-0.90,-0.54,-0.00,10.47,6308
16:35:18.423,63575,-0.90,-0.54,0.01,10.49,6309
16:35:18.424,63585,-0.90,-0.55,0.02,10.52,6310
16:35:18.426,63595,-0.90,-0.54,-0.00,10.53,6311
16:35:18.429,63605,-0.89,-0.54,0.00,10.40,6312
16:35:18.465,63615,-0.89,-0.53,-0.00,10.39,6313
16:35:18.466,63625,-0.90,-0.53,0.00,10.41,6314
16:35:18.467,63635,-0.89,-0.54,0.00,10.45,6315
16:35:18.469,63645,-0.89,-0.55,0.00,10.50,6316
16:35:18.506,63655,-0.89,-0.54,0.01,10.40,6317
16:35:18.506,63665,-0.89,-0.54,0.01,10.45,6318
16:35:18.508,63675,-0.90,-0.54,0.01,10.48,6319
16:35:18.509,63685,-0.90,-0.54,0.01,10.45,6320
16:35:18.546,63695,-0.90,-0.54,0.00,10.46,6321
16:35:18.547,63705,-0.89,-0.54,0.01,10.44,6322
16:35:18.549,63715,-0.88,-0.54,0.00,10.38,6323
16:35:18.550,63725,-0.89,-0.55,-0.00,10.47,6324
16:35:18.589,63735,-0.89,-0.55,-0.01,10.50,6325
16:35:18.589,63745,-0.91,-0.56,-0.00,10.66,6326
16:35:18.590,63755,-0.89,-0.54,-0.02,10.45,6327
16:35:18.592,63765,-0.89,-0.53,-0.01,10.38,6328
16:35:18.630,63775,-0.90,-0.54,-0.01,10.49,6329
16:35:18.631,63785,-0.89,-0.53,-0.05,10.40,6330
16:35:18.633,63795,-0.91,-0.54,-0.03,10.55,6331
16:35:18.633,63805,-0.91,-0.53,-0.05,10.54,6332
16:35:18.656,63815,-0.90,-0.53,-0.08,10.46,6333
16:35:18.658,63825,-0.92,-0.53,-0.09,10.64,6334
16:35:18.660,63835,-0.94,-0.52,-0.11,10.84,6335
16:35:18.675,63845,-0.99,-0.51,-0.17,11.23,6336
16:35:18.681,63855,-1.03,-0.48,-0.25,11.68,6337
16:35:18.694,63865,-1.05,-0.46,-0.35,11.97,6338
16:35:18.700,63875,-1.06,-0.41,-0.41,12.05,6339
16:35:18.711,63885,-1.05,-0.35,-0.48,12.09,6340
16:35:18.721,63895,-1.05,-0.34,-0.49,12.06,6341
16:35:18.737,63905,-1.05,-0.35,-0.43,11.89,6342
16:35:18.739,63915,-1.08,-0.39,-0.29,11.81,6343
16:35:18.749,63925,-1.05,-0.44,-0.22,11.61,6344
16:35:18.761,63935,-0.99,-0.50,-0.06,11.16,6345
16:35:18.769,63945,-0.96,-0.57,0.02,11.15,6346
16:35:18.787,63955,-0.92,-0.64,0.08,11.22,6347
16:35:18.790,63965,-0.95,-0.75,0.09,12.09,6348
16:35:18.806,63975,-1.02,-0.80,0.07,12.97,6349
16:35:18.809,63985,-1.01,-0.76,0.10,12.68,6350
16:35:18.827,63995,-1.00,-0.68,0.14,12.17,6351
16:35:18.829,64005,-1.01,-0.56,0.19,11.72,6352
16:35:18.844,64015,-1.05,-0.50,0.22,11.86,6353
16:35:18.850,64025,-1.05,-0.53,0.22,11.95,6354
16:35:18.866,64035,-1.02,-0.58,0.20,11.88,6355
16:35:18.869,64045,-0.98,-0.63,0.17,11.76,6356
16:35:18.879,64055,-0.92,-0.66,0.13,11.42,6357
16:35:18.890,64065,-0.88,-0.68,0.10,11.15,6358
16:35:18.907,64075,-0.86,-0.68,0.10,11.04,6359
16:35:18.909,64085,-0.90,-0.63,0.07,11.03,6360
16:35:18.921,64095,-0.92,-0.60,0.05,11.01,6361
16:35:18.929,64105,-0.94,-0.57,0.06,11.06,6362
16:35:18.942,64115,-0.95,-0.54,0.03,10.98,6363
16:35:18.953,64125,-0.93,-0.51,0.01,10.65,6364
16:35:18.961,64135,-0.94,-0.48,0.02,10.52,6365
16:35:18.970,64145,-0.96,-0.45,0.02,10.57,6366
16:35:18.979,64155,-0.95,-0.45,-0.01,10.58,6367
16:35:18.989,64165,-0.94,-0.49,0.00,10.62,6368
16:35:18.999,64175,-0.93,-0.52,-0.01,10.68,6369
16:35:19.011,64185,-0.92,-0.51,-0.03,10.52,6370
16:35:19.023,64195,-0.91,-0.49,-0.04,10.31,6371
16:35:19.030,64205,-0.89,-0.48,-0.05,10.11,6372
16:35:19.069,64215,-0.86,-0.48,-0.06,9.92,6373
16:35:19.072,64225,-0.87,-0.51,-0.05,10.05,6374
16:35:19.072,64235,-0.87,-0.51,-0.09,10.08,6375
16:35:19.075,64245,-0.87,-0.48,-0.12,9.98,6376
16:35:19.114,64255,-0.86,-0.45,-0.16,9.89,6377
16:35:19.115,64265,-0.86,-0.42,-0.19,9.80,6378
16:35:19.115,64275,-0.85,-0.40,-0.19,9.59,6379
16:35:19.209,64285,-0.84,-0.38,-0.17,9.40,6380
16:35:19.210,64295,-0.86,-0.32,-0.19,9.41,6381
16:35:19.211,64305,-0.89,-0.26,-0.18,9.48,6382
16:35:19.251,64315,-0.90,-0.27,-0.15,9.52,6383
16:35:19.251,64325,-0.90,-0.25,-0.15,9.48,6384
16:35:19.252,64335,-0.86,-0.24,-0.22,9.16,6385
16:35:19.291,64345,-0.83,-0.27,-0.26,9.13,6386
16:35:19.294,64355,-0.83,-0.30,-0.31,9.39,6387
16:35:19.294,64365,-0.81,-0.34,-0.31,9.31,6388
16:35:19.296,64375,-0.77,-0.37,-0.36,9.28,6389
16:35:19.296,64385,-0.74,-0.39,-0.35,9.09,6390
16:35:19.296,64395,-0.73,-0.37,-0.31,8.76,6391
16:35:19.296,64405,-0.74,-0.36,-0.28,8.70,6392
16:35:19.296,64415,-0.74,-0.38,-0.25,8.69,6393
16:35:19.296,64425,-0.70,-0.41,-0.22,8.42,6394
16:35:19.296,64435,-0.67,-0.44,-0.18,8.22,6395
16:35:19.296,64445,-0.67,-0.46,-0.13,8.21,6396
16:35:19.296,64455,-0.67,-0.50,-0.07,8.37,6397
16:35:19.296,64465,-0.66,-0.53,-0.02,8.47,6398
16:35:19.333,64475,-0.65,-0.53,0.07,8.40,6399
16:35:19.334,64485,-1.04,-0.64,-0.04,12.25,6400
16:35:19.334,64495,-1.36,-0.70,-0.12,15.35,6401
16:35:19.335,64505,-1.80,-0.83,-0.23,19.94,6402
16:35:19.359,64515,-2.08,-0.41,-0.31,21.43,6403
16:35:19.359,64525,-1.75,0.21,-0.49,18.28,6404
16:35:19.361,64535,-1.38,0.15,-0.69,15.50,6405
16:35:19.377,64545,-1.27,-0.30,-0.59,14.35,6406
16:35:19.381,64555,-1.18,-0.63,-0.06,13.35,6407
16:35:19.389,64565,-1.01,-0.55,0.07,11.50,6408
16:35:19.402,64575,-0.67,-0.51,0.09,8.53,6409
16:35:19.409,64585,-0.57,-0.57,0.25,8.47,6410
16:35:19.420,64595,-0.61,-0.59,0.37,9.30,6411
16:35:19.433,64605,-0.59,-0.68,0.47,10.13,6412
16:35:19.439,64615,-0.66,-0.74,0.28,10.37,6413
16:35:19.450,64625,-0.64,-0.79,0.14,10.30,6414
16:35:19.460,64635,-0.63,-0.97,0.19,11.69,6415
16:35:19.478,64645,-0.77,-0.91,0.19,12.05,6416
16:35:19.481,64655,-0.83,-0.76,0.17,11.42,6417
16:35:19.494,64665,-0.84,-0.67,0.10,10.82,6418
16:35:19.500,64675,-0.84,-0.60,0.10,10.35,6419
16:35:19.510,64685,-0.88,-0.53,0.11,10.35,6420
16:35:19.526,64695,-0.91,-0.50,0.10,10.43,6421
16:35:19.531,64705,-0.88,-0.53,0.12,10.39,6422
16:35:19.539,64715,-0.87,-0.55,0.14,10.42,6423
16:35:19.555,64725,-0.88,-0.54,0.15,10.41,6424
16:35:19.558,64735,-0.86,-0.56,0.15,10.38,6425
16:35:19.570,64745,-0.84,-0.62,0.14,10.53,6426
16:35:19.580,64755,-0.82,-0.67,0.11,10.67,6427
16:35:19.589,64765,-0.80,-0.72,0.07,10.79,6428
16:35:19.601,64775,-0.80,-0.71,0.06,10.69,6429
16:35:19.613,64785,-0.74,-0.73,0.03,10.36,6430
16:35:19.622,64795,-0.72,-0.74,-0.00,10.35,6431
16:35:19.632,64805,-0.72,-0.76,-0.01,10.43,6432
16:35:19.640,64815,-0.74,-0.76,-0.01,10.57,6433
16:35:19.650,64825,-0.75,-0.74,0.01,10.51,6434
16:35:19.660,64835,-0.78,-0.70,0.03,10.45,6435
16:35:19.670,64845,-0.80,-0.65,0.06,10.29,6436
16:35:19.703,64855,-0.80,-0.65,0.05,10.31,6437
16:35:19.707,64865,-0.78,-0.65,0.03,10.17,6438
16:35:19.707,64875,-0.76,-0.67,0.01,10.08,6439
16:35:19.710,64885,-0.74,-0.70,-0.01,10.17,6440
16:35:19.723,64895,-0.73,-0.71,-0.01,10.18,6441
16:35:19.733,64905,-0.72,-0.71,-0.03,10.11,6442
16:35:19.742,64915,-0.74,-0.71,-0.03,10.25,6443
16:35:19.753,64925,-0.76,-0.71,-0.03,10.40,6444
16:35:19.760,64935,-0.76,-0.73,-0.02,10.52,6445
16:35:19.769,64945,-0.73,-0.76,-0.06,10.56,6446
16:35:19.788,64955,-0.68,-0.80,-0.12,10.59,6447
16:35:19.790,64965,-0.69,-0.79,-0.14,10.59,6448
16:35:19.800,64975,-0.73,-0.75,-0.16,10.60,6449
16:35:19.813,64985,-0.74,-0.77,-0.19,10.85,6450
16:35:19.823,64995,-0.71,-0.79,-0.22,10.85,6451
16:35:19.832,65005,-0.69,-0.77,-0.25,10.62,6452
16:35:19.843,65015,-0.71,-0.68,-0.21,10.07,6453
16:35:19.850,65025,-0.80,-0.52,-0.07,9.54,6454
16:35:19.859,65035,-1.00,-0.28,0.15,10.45,6455
16:35:19.876,65045,-1.20,-0.18,0.31,12.51,6456
16:35:19.880,65055,-1.33,-0.07,0.34,13.73,6457
16:35:19.897,65065,-1.11,-0.10,0.39,11.84,6458
16:35:19.903,65075,-0.78,-0.57,0.19,9.84,6459
16:35:19.909,65085,-0.54,-0.82,0.10,9.85,6460
16:35:19.921,65095,-0.51,-0.94,0.10,10.74,6461
16:35:19.929,65105,-0.65,-0.79,0.16,10.42,6462
16:35:19.981,65115,-0.68,-0.71,0.15,9.92,6463
16:35:19.982,65125,-0.74,-0.63,0.17,9.86,6464
16:35:19.983,65135,-0.76,-0.61,0.14,9.89,6465
16:35:19.984,65145,-0.70,-0.65,0.11,9.65,6466
16:35:19.986,65155,-0.71,-0.66,0.14,9.83,6467
16:35:20.022,65165,-0.74,-0.66,0.18,10.11,6468
16:35:20.026,65175,-0.83,-0.59,0.22,10.40,6469
16:35:20.026,65185,-0.85,-0.55,0.23,10.37,6470
16:35:20.026,65195,-0.97,-0.49,0.25,11.20,6471
16:35:20.063,65205,-0.99,-0.51,0.20,11.34,6472
16:35:20.066,65215,-0.83,-0.64,0.11,10.55,6473
16:35:20.066,65225,-0.74,-0.73,-0.02,10.35,6474
16:35:20.066,65235,-0.78,-0.74,-0.04,10.73,6475
16:35:20.074,65245,-0.86,-0.71,-0.00,11.16,6476
16:35:20.105,65255,-0.93,-0.66,-0.01,11.38,6477
16:35:20.108,65265,-0.96,-0.58,-0.03,11.25,6478
16:35:20.108,65275,-1.00,-0.52,-0.04,11.26,6479
16:35:20.109,65285,-1.08,-0.60,-0.10,12.39,6480
16:35:20.147,65295,-1.23,-0.80,-0.10,14.76,6481
16:35:20.147,65305,-1.45,-0.76,-0.13,16.44,6482
16:35:20.150,65315,-1.42,-0.55,-0.19,15.34,6483
16:35:20.150,65325,-1.49,-0.42,-0.30,15.81,6484
16:35:20.161,65335,-1.56,-0.39,-0.41,16.58,6485
16:35:20.169,65345,-1.62,-0.47,-0.33,17.19,6486
16:35:20.180,65355,-1.54,-0.66,-0.21,16.85,6487
16:35:20.190,65365,-1.30,-0.80,-0.14,15.36,6488
16:35:20.200,65375,-1.00,-0.99,-0.05,14.10,6489
16:35:20.209,65385,-0.80,-1.20,0.07,14.43,6490
16:35:20.223,65395,-0.68,-1.32,0.58,15.96,6491
16:35:20.233,65405,-0.81,-1.33,0.79,17.49,6492
16:35:20.242,65415,-0.68,-1.18,1.18,17.99,6493
16:35:20.249,65425,-0.77,-1.01,0.97,15.96,6494
16:35:20.261,65435,-0.63,-0.85,0.87,13.68,6495
16:35:20.270,65445,-0.37,-0.76,1.08,13.74,6496
16:35:20.281,65455,-0.15,-0.73,1.23,14.43,6497
16:35:20.297,65465,-0.04,-0.66,1.08,12.69,6498
16:35:20.301,65475,-0.19,-0.57,0.74,9.52,6499
16:35:20.309,65485,-0.43,-0.60,0.56,9.25,6500
16:35:20.323,65495,-0.49,-0.81,0.66,11.52,6501
16:35:20.332,65505,-0.45,-0.98,0.67,12.68,6502
16:35:20.347,65515,-0.28,-1.05,0.66,12.74,6503
16:35:20.354,65525,-0.05,-0.94,0.66,11.48,6504
16:35:20.360,65535,0.08,-0.82,0.62,10.34,6505
16:35:20.372,65545,-0.00,-0.66,0.67,9.37,6506
16:35:20.383,65555,-0.12,-0.51,0.69,8.67,6507
16:35:20.391,65565,-0.25,-0.38,0.73,8.61,6508
16:35:20.400,65575,-0.34,-0.29,0.71,8.41,6509
16:35:20.410,65585,-0.30,-0.26,0.75,8.50,6510
16:35:20.426,65595,-0.19,-0.21,0.83,8.79,6511
16:35:20.449,65605,-0.12,-0.20,0.83,8.62,6512
16:35:20.453,65615,-0.11,-0.23,0.74,7.88,6513
16:35:20.466,65625,-0.06,-0.33,0.72,7.91,6514
16:35:20.466,65635,-0.11,-0.41,0.64,7.72,6515
16:35:20.485,65645,-0.15,-0.45,0.61,7.77,6516
16:35:20.498,65655,-0.11,-0.52,0.64,8.33,6517
16:35:20.500,65665,-0.02,-0.58,0.68,8.90,6518
16:35:20.500,65675,0.03,-0.59,0.59,8.37,6519
16:35:20.511,65685,0.03,-0.57,0.51,7.64,6520
16:35:20.521,65695,-0.14,-0.64,0.56,8.61,6521
16:35:20.535,65705,-0.35,-0.66,0.56,9.35,6522
16:35:20.551,65715,-0.54,-0.58,0.53,9.53,6523
16:35:20.552,65725,-0.63,-0.50,0.56,9.77,6524
16:35:20.575,65735,-0.71,-0.45,0.54,10.01,6525
16:35:20.575,65745,-0.77,-0.42,0.44,9.79,6526
16:35:20.605,65755,-0.79,-0.55,0.50,10.86,6527
16:35:20.609,65765,-0.77,-0.78,0.68,12.86,6528
16:35:20.609,65775,-0.61,-0.85,0.47,11.47,6529
16:35:20.613,65785,-0.55,-0.57,-0.18,8.08,6530
16:35:20.623,65795,-0.67,-0.05,-0.66,9.40,6531
16:35:20.633,65805,-0.74,0.19,-0.95,12.22,6532
16:35:20.641,65815,-0.75,0.36,-1.18,14.42,6533
16:35:20.654,65825,-0.88,0.45,-1.55,18.38,6534
16:35:20.691,65835,-0.84,0.16,-1.32,15.73,6535
16:35:20.695,65845,-0.63,-0.11,-0.59,8.69,6536
16:35:20.695,65855,-0.47,-0.48,-0.19,7.00,6537
16:35:20.695,65865,-0.25,-0.67,0.09,7.22,6538
16:35:20.731,65875,-0.08,-0.79,0.17,8.13,6539
16:35:20.734,65885,-0.00,-0.74,0.29,7.95,6540
16:35:20.734,65895,-0.10,-0.78,0.39,8.82,6541
16:35:20.734,65905,-0.95,-1.01,0.47,14.60,6542
16:35:20.773,65915,-1.88,-1.30,0.50,23.37,6543
16:35:20.773,65925,-2.13,-1.17,0.59,24.97,6544
16:35:20.778,65935,-2.13,-0.12,0.10,21.31,6545
16:35:20.778,65945,-1.77,0.70,-0.49,19.60,6546
16:35:20.814,65955,-1.49,0.41,-0.87,17.77,6547
16:35:20.817,65965,-1.29,-0.70,-0.19,14.77,6548
16:35:20.817,65975,-0.69,-1.11,0.16,13.15,6549
16:35:20.817,65985,-0.53,-0.85,-0.26,10.34,6550
16:35:20.820,65995,-0.31,-0.73,0.21,8.17,6551
16:35:20.854,66005,-0.35,-0.83,0.40,9.85,6552
16:35:20.855,66015,-0.38,-0.85,0.46,10.41,6553
16:35:20.859,66025,-0.23,-0.77,1.01,12.91,6554
16:35:20.862,66035,-0.61,-0.65,0.62,10.85,6555
16:35:20.881,66045,-0.94,-0.53,0.62,12.45,6556
16:35:20.883,66055,-1.06,-0.50,0.52,12.85,6557
16:35:20.894,66065,-0.78,-0.74,0.43,11.57,6558
16:35:20.902,66075,-0.59,-0.89,0.30,11.11,6559
16:35:20.914,66085,-0.53,-0.97,0.13,11.13,6560
16:35:20.922,66095,-0.49,-0.89,0.15,10.26,6561
16:35:20.929,66105,-0.60,-0.82,0.17,10.27,6562
16:35:20.940,66115,-0.66,-0.75,0.19,10.13,6563
16:35:20.950,66125,-0.67,-0.74,0.25,10.26,6564
16:35:20.982,66135,-0.67,-0.73,0.30,10.38,6565
16:35:20.984,66145,-0.70,-0.75,0.32,10.77,6566
16:35:20.984,66155,-0.75,-0.81,0.26,11.35,6567
16:35:20.989,66165,-0.75,-0.78,0.24,11.09,6568
16:35:21.003,66175,-0.76,-0.71,0.24,10.64,6569
16:35:21.010,66185,-0.79,-0.60,0.17,10.06,6570
16:35:21.020,66195,-0.83,-0.54,0.09,9.93,6571
16:35:21.030,66205,-0.81,-0.56,0.06,9.87,6572
16:35:21.041,66215,-0.80,-0.60,0.02,10.01,6573
16:35:21.051,66225,-0.76,-0.66,0.01,10.04,6574
16:35:21.066,66235,-0.70,-0.68,0.01,9.78,6575
16:35:21.071,66245,-0.71,-0.70,-0.03,9.95,6576
16:35:21.079,66255,-0.74,-0.67,-0.00,9.99,6577
16:35:21.089,66265,-0.84,-0.62,0.06,10.46,6578
16:35:21.102,66275,-0.89,-0.56,0.13,10.61,6579
16:35:21.110,66285,-0.88,-0.52,0.16,10.35,6580
16:35:21.121,66295,-0.79,-0.58,0.19,10.00,6581
16:35:21.130,66305,-0.76,-0.61,0.20,9.93,6582
16:35:21.145,66315,-0.75,-0.64,0.20,10.05,6583
16:35:21.149,66325,-0.76,-0.63,0.16,10.02,6584
16:35:21.161,66335,-0.80,-0.59,0.12,10.02,6585
16:35:21.178,66345,-0.84,-0.59,0.11,10.29,6586
16:35:21.179,66355,-0.84,-0.59,0.04,10.27,6587
16:35:21.196,66365,-0.83,-0.62,-0.00,10.35,6588
16:35:21.200,66375,-0.86,-0.61,-0.08,10.60,6589
16:35:21.218,66385,-0.89,-0.59,-0.09,10.73,6590
16:35:21.221,66395,-0.91,-0.57,-0.10,10.75,6591
16:35:21.234,66405,-0.91,-0.56,-0.08,10.70,6592
16:35:21.242,66415,-0.88,-0.58,-0.09,10.62,6593
16:35:21.258,66425,-0.84,-0.59,-0.09,10.35,6594
16:35:21.261,66435,-0.81,-0.62,-0.09,10.22,6595
16:35:21.271,66445,-0.85,-0.61,-0.05,10.44,6596
16:35:21.289,66455,-0.87,-0.59,-0.05,10.58,6597
16:35:21.291,66465,-0.83,-0.66,-0.06,10.62,6598
16:35:21.303,66475,-0.81,-0.71,-0.08,10.77,6599
16:35:21.309,66485,-0.91,-0.68,-0.07,11.37,6600
16:35:21.325,66495,-1.04,-0.61,0.00,12.00,6601
16:35:21.331,66505,-1.14,-0.66,0.01,13.18,6602
16:35:21.343,66515,-1.26,-0.80,0.08,14.95,6603
16:35:21.351,66525,-1.53,-0.57,0.12,16.43,6604
16:35:21.404,66535,-1.73,-0.30,0.03,17.54,6605
16:35:21.409,66545,-1.72,-0.08,0.02,17.23,6606
16:35:21.409,66555,-1.83,-0.19,-0.19,18.54,6607
16:35:21.410,66565,-1.65,-0.67,-0.32,18.10,6608
16:35:21.410,66575,-1.49,-0.98,-0.19,17.88,6609
16:35:21.410,66585,-1.26,-1.09,-0.13,16.67,6610
16:35:21.440,66595,-0.96,-1.18,-0.10,15.27,6611
16:35:21.443,66605,-0.74,-1.24,0.25,14.68,6612
16:35:21.445,66615,-0.70,-1.30,0.50,15.58,6613
16:35:21.475,66625,-0.73,-1.16,0.61,15.01,6614
16:35:21.475,66635,-0.61,-0.97,0.80,13.94,6615
16:35:21.479,66645,-0.40,-0.87,1.12,14.71,6616
16:35:21.514,66655,-0.24,-0.77,1.23,14.75,6617
16:35:21.515,66665,-0.12,-0.72,1.19,14.00,6618
16:35:21.520,66675,-0.34,-0.53,0.93,11.23,6619
16:35:21.554,66685,-0.52,-0.37,0.71,9.58,6620
16:35:21.559,66695,-0.61,-0.40,0.78,10.68,6621
16:35:21.562,66705,-0.47,-0.53,0.76,10.39,6622
16:35:21.592,66715,-0.29,-0.61,0.72,9.86,6623
16:35:21.595,66725,-0.09,-0.64,0.72,9.74,6624
16:35:21.595,66735,0.03,-0.68,0.63,9.24,6625
16:35:21.595,66745,0.07,-0.67,0.56,8.77,6626
16:35:21.597,66755,-0.05,-0.57,0.60,8.28,6627
16:35:21.604,66765,-0.09,-0.53,0.64,8.42,6628
16:35:21.604,66775,-0.12,-0.57,0.71,9.22,6629
16:35:21.610,66785,-0.11,-0.55,0.73,9.21,6630
16:35:21.621,66795,-0.08,-0.50,0.74,8.92,6631
16:35:21.629,66805,-0.06,-0.46,0.75,8.85,6632
16:35:21.639,66815,-0.12,-0.40,0.72,8.35,6633
16:35:21.653,66825,-0.24,-0.31,0.74,8.35,6634
16:35:21.659,66835,-0.36,-0.24,0.75,8.66,6635
16:35:21.677,66845,-0.46,-0.19,0.79,9.31,6636
16:35:21.680,66855,-0.50,-0.13,0.86,10.03,6637
16:35:21.690,66865,-0.48,-0.07,0.85,9.73,6638
16:35:21.705,66875,-0.32,-0.24,0.78,8.74,6639
16:35:21.710,66885,-0.20,-0.55,0.73,9.34,6640
16:35:21.721,66895,-0.12,-0.81,0.62,10.26,6641
16:35:21.733,66905,0.01,-0.91,0.46,10.22,6642
16:35:21.744,66915,0.17,-0.80,0.23,8.50,6643
16:35:21.749,66925,0.04,-0.72,0.33,7.94,6644
16:35:21.771,66935,-0.22,-0.60,0.52,8.22,6645
16:35:21.772,66945,-0.37,-0.57,0.56,8.78,6646
16:35:21.779,66955,-0.49,-0.52,0.56,9.10,6647
16:35:21.800,66965,-0.60,-0.44,0.54,9.16,6648
16:35:21.803,66975,-0.70,-0.39,0.51,9.50,6649
16:35:21.818,66985,-0.76,-0.37,0.49,9.74,6650
16:35:21.830,66995,-0.78,-0.39,0.44,9.73,6651
16:35:21.832,67005,-0.77,-0.54,0.46,10.49,6652
16:35:21.840,67015,-0.86,-0.61,0.18,10.64,6653
16:35:21.875,67025,-0.73,-0.53,-0.04,9.08,6654
16:35:21.878,67035,-0.76,-0.36,-0.15,8.55,6655
16:35:21.878,67045,-0.86,-0.17,-0.16,8.92,6656
16:35:21.927,67055,-0.98,-0.02,-0.30,10.29,6657
16:35:21.929,67065,-1.03,0.09,-0.63,12.13,6658
16:35:21.929,67075,-0.91,0.05,-0.80,12.12,6659
16:35:21.929,67085,-0.78,0.04,-1.08,13.34,6660
16:35:21.931,67095,-0.72,-0.13,-1.09,13.15,6661
16:35:21.931,67105,-0.77,-0.27,-0.68,10.64,6662
16:35:21.939,67115,-0.70,-0.38,-0.35,8.74,6663
16:35:21.957,67125,-0.62,-0.40,-0.16,7.58,6664
16:35:21.960,67135,-0.69,-0.44,-0.11,8.27,6665
16:35:21.971,67145,-1.23,-0.66,-0.05,13.98,6666
16:35:21.980,67155,-1.96,-0.71,0.21,20.97,6667
16:35:21.990,67165,-2.13,-0.43,0.43,22.10,6668
16:35:22.007,67175,-1.79,0.27,-0.13,18.11,6669
16:35:22.009,67185,-1.35,0.47,-0.68,15.83,6670
16:35:22.025,67195,-1.05,-0.55,-0.76,14.10,6671
16:35:22.029,67205,-0.75,-0.85,0.10,11.37,6672
16:35:22.044,67215,-0.55,-1.04,0.16,11.93,6673
16:35:22.049,67225,-0.32,-1.11,0.12,11.68,6674
16:35:22.067,67235,-0.18,-1.06,0.20,10.91,6675
16:35:22.070,67245,-0.10,-1.17,0.45,12.54,6676
16:35:22.109,67255,-0.27,-1.13,0.47,12.53,6677
16:35:22.113,67265,-0.67,-0.81,0.61,12.14,6678
16:35:22.113,67275,-0.82,-0.52,0.55,11.16,6679
16:35:22.113,67285,-0.95,-0.43,0.51,11.62,6680
16:35:22.151,67295,-1.01,-0.46,0.37,11.68,6681
16:35:22.151,67305,-0.93,-0.61,0.27,11.43,6682
16:35:22.151,67315,-0.78,-0.66,0.28,10.59,6683
16:35:22.156,67325,-0.71,-0.72,0.26,10.49,6684
16:35:22.191,67335,-0.71,-0.71,0.25,10.32,6685
16:35:22.191,67345,-0.73,-0.60,0.30,9.92,6686
16:35:22.196,67355,-0.71,-0.66,0.32,10.22,6687
16:35:22.196,67365,-0.76,-0.64,0.33,10.51,6688
16:35:22.228,67375,-0.85,-0.59,0.37,10.97,6689
16:35:22.229,67385,-0.93,-0.55,0.28,11.18,6690
16:35:22.229,67395,-0.94,-0.57,0.20,11.21,6691
16:35:22.230,67405,-0.85,-0.64,0.16,10.76,6692
16:35:22.263,67415,-0.80,-0.69,0.11,10.61,6693
16:35:22.263,67425,-0.75,-0.74,0.07,10.60,6694
16:35:22.264,67435,-0.71,-0.83,0.01,10.95,6695
16:35:22.303,67445,-0.62,-0.91,-0.03,11.05,6696
16:35:22.304,67455,-0.56,-0.93,-0.08,10.92,6697
16:35:22.305,67465,-0.58,-0.89,-0.10,10.63,6698
16:35:22.307,67475,-0.65,-0.80,-0.07,10.35,6699
16:35:22.309,67485,-0.77,-0.72,-0.04,10.55,6700
16:35:22.337,67495,-0.85,-0.62,0.02,10.53,6701
16:35:22.340,67505,-0.89,-0.57,0.05,10.56,6702
16:35:22.346,67515,-0.84,-0.60,0.03,10.31,6703
16:35:22.353,67525,-0.76,-0.65,-0.02,10.03,6704
16:35:22.359,67535,-0.72,-0.71,-0.05,10.17,6705
16:35:22.375,67545,-0.73,-0.75,-0.05,10.47,6706
16:35:22.380,67555,-0.77,-0.73,-0.03,10.57,6707
16:35:22.393,67565,-0.79,-0.70,-0.01,10.55,6708
16:35:22.399,67575,-0.81,-0.64,0.02,10.28,6709
16:35:22.412,67585,-0.81,-0.62,0.04,10.17,6710
16:35:22.421,67595,-0.80,-0.59,0.03,9.97,6711
16:35:22.436,67605,-0.81,-0.58,0.02,9.91,6712
16:35:22.439,67615,-0.81,-0.58,0.01,9.98,6713
16:35:22.450,67625,-0.83,-0.59,0.02,10.22,6714
16:35:22.459,67635,-0.83,-0.61,-0.00,10.36,6715
16:35:22.473,67645,-0.82,-0.63,-0.05,10.33,6716
16:35:22.479,67655,-0.80,-0.62,-0.10,10.17,6717
16:35:22.496,67665,-0.80,-0.62,-0.13,10.18,6718
16:35:22.499,67675,-0.86,-0.56,-0.11,10.33,6719
16:35:22.512,67685,-0.96,-0.48,-0.11,10.75,6720
16:35:22.520,67695,-0.99,-0.45,-0.08,10.94,6721
16:35:22.530,67705,-0.89,-0.54,-0.08,10.40,6722
16:35:22.549,67715,-0.76,-0.62,-0.09,9.84,6723
16:35:22.550,67725,-0.70,-0.67,-0.05,9.69,6724
16:35:22.563,67735,-0.70,-0.66,-0.01,9.66,6725
16:35:22.571,67745,-0.76,-0.63,0.06,9.87,6726
16:35:22.579,67755,-0.76,-0.66,0.13,10.10,6727
16:35:22.589,67765,-0.72,-0.67,0.16,9.93,6728
16:35:22.599,67775,-0.71,-0.70,0.15,10.03,6729
16:35:22.614,67785,-0.67,-0.70,0.13,9.77,6730
16:35:22.621,67795,-0.68,-0.70,0.12,9.80,6731
16:35:22.629,67805,-0.68,-0.70,0.10,9.84,6732
16:35:22.639,67815,-0.76,-0.69,0.09,10.29,6733
16:35:22.658,67825,-0.88,-0.59,0.11,10.67,6734
16:35:22.660,67835,-0.98,-0.49,0.13,10.98,6735
16:35:22.678,67845,-1.03,-0.45,0.10,11.27,6736
16:35:22.681,67855,-1.00,-0.53,-0.00,11.32,6737
16:35:22.689,67865,-1.01,-0.69,-0.02,12.21,6738
16:35:22.703,67875,-1.16,-0.67,-0.02,13.36,6739
16:35:22.714,67885,-1.27,-0.59,-0.07,14.05,6740
16:35:22.720,67895,-1.26,-0.52,-0.14,13.65,6741
16:35:22.732,67905,-1.24,-0.49,-0.19,13.50,6742
16:35:22.742,67915,-1.41,-0.49,-0.23,15.13,6743
16:35:22.753,67925,-1.57,-0.48,-0.06,16.47,6744
16:35:22.761,67935,-1.66,-0.49,-0.14,17.40,6745
16:35:22.770,67945,-1.61,-0.44,-0.17,16.76,6746
16:35:22.782,67955,-1.35,-0.59,-0.10,14.77,6747
16:35:22.792,67965,-1.11,-0.84,0.04,13.93,6748
16:35:22.799,67975,-0.90,-1.06,0.14,14.01,6749
16:35:22.814,67985,-0.68,-1.13,0.33,13.65,6750
16:35:22.819,67995,-0.53,-1.22,0.60,14.55,6751
16:35:22.830,68005,-0.39,-1.28,0.87,15.98,6752
16:35:22.869,68015,-0.46,-1.23,0.88,15.82,6753
16:35:22.870,68025,-0.41,-1.07,0.79,13.95,6754
16:35:22.874,68035,-0.29,-0.89,0.95,13.34,6755
16:35:22.874,68045,-0.23,-0.74,1.07,13.26,6756
16:35:22.909,68055,-0.26,-0.61,1.12,12.98,6757
16:35:22.911,68065,-0.41,-0.44,0.88,10.62,6758
16:35:22.912,68075,-0.51,-0.41,0.67,9.41,6759
16:35:22.916,68085,-0.47,-0.53,0.62,9.45,6760
16:35:22.950,68095,-0.42,-0.70,0.57,9.95,6761
16:35:22.951,68105,-0.29,-0.77,0.57,9.99,6762
16:35:22.953,68115,-0.16,-0.74,0.61,9.70,6763
16:35:22.954,68125,-0.06,-0.72,0.59,9.30,6764
16:35:22.992,68135,-0.03,-0.65,0.57,8.65,6765
16:35:22.992,68145,-0.11,-0.57,0.60,8.32,6766
16:35:22.994,68155,-0.17,-0.46,0.64,8.07,6767
16:35:22.998,68165,-0.20,-0.39,0.66,7.88,6768
16:35:23.028,68175,-0.19,-0.34,0.68,7.79,6769
16:35:23.030,68185,-0.12,-0.35,0.66,7.51,6770
16:35:23.030,68195,-0.06,-0.44,0.63,7.69,6771
16:35:23.032,68205,-0.03,-0.43,0.60,7.40,6772
16:35:23.065,68215,-0.10,-0.50,0.60,7.87,6773
16:35:23.067,68225,-0.16,-0.55,0.69,8.96,6774
16:35:23.068,68235,-0.33,-0.46,0.66,8.74,6775
16:35:23.072,68245,-0.39,-0.40,0.65,8.60,6776
16:35:23.081,68255,-0.40,-0.36,0.59,7.98,6777
16:35:23.120,68265,-0.38,-0.33,0.57,7.60,6778
16:35:23.120,68275,-0.42,-0.35,0.59,7.99,6779
16:35:23.122,68285,-0.48,-0.39,0.50,7.95,6780
16:35:23.123,68295,-0.54,-0.54,0.54,9.38,6781
16:35:23.132,68305,-0.59,-0.66,0.57,10.54,6782
16:35:23.139,68315,-0.59,-0.72,0.57,10.84,6783
16:35:23.154,68325,-0.63,-0.71,0.51,10.75,6784
16:35:23.159,68335,-0.68,-0.76,0.45,11.16,6785
16:35:23.175,68345,-0.70,-0.65,0.30,10.00,6786
16:35:23.179,68355,-0.77,-0.51,0.21,9.42,6787
16:35:23.197,68365,-0.81,-0.43,0.22,9.48,6788
16:35:23.199,68375,-0.77,-0.43,0.19,9.01,6789
16:35:23.213,68385,-0.72,-0.36,-0.10,8.13,6790
16:35:23.218,68395,-0.72,-0.19,-0.40,8.48,6791
16:35:23.231,68405,-0.81,0.02,-0.66,10.47,6792
16:35:23.241,68415,-0.93,0.13,-0.99,13.63,6793
16:35:23.251,68425,-1.01,0.32,-1.19,15.92,6794
16:35:23.259,68435,-0.97,0.15,-1.17,15.26,6795
16:35:23.274,68445,-0.85,-0.02,-0.77,11.46,6796
16:35:23.279,68455,-0.71,-0.31,-0.31,8.29,6797
16:35:23.294,68465,-0.54,-0.55,-0.15,7.85,6798
16:35:23.303,68475,-0.44,-0.67,-0.06,7.99,6799
16:35:23.313,68485,-0.33,-0.70,0.13,7.85,6800
16:35:23.319,68495,-0.63,-0.70,0.10,9.51,6801
16:35:23.329,68505,-0.95,-0.76,0.17,12.25,6802
16:35:23.345,68515,-1.21,-0.74,0.22,14.37,6803
16:35:23.355,68525,-1.45,-0.54,0.14,15.54,6804
16:35:23.359,68535,-1.53,-0.24,0.04,15.53,6805
16:35:23.373,68545,-1.77,-0.01,-0.16,17.77,6806
16:35:23.379,68555,-1.86,0.07,-0.14,18.63,6807
16:35:23.392,68565,-1.42,-0.31,-0.04,14.54,6808
16:35:23.399,68575,-0.88,-0.83,-0.08,12.13,6809
16:35:23.412,68585,-0.54,-0.97,-0.12,11.14,6810
16:35:23.422,68595,-0.49,-0.91,-0.18,10.52,6811
16:35:23.430,68605,-0.45,-1.02,0.11,11.20,6812
16:35:23.440,68615,-0.52,-0.93,0.43,11.53,6813
16:35:23.450,68625,-0.71,-0.76,0.43,11.26,6814
16:35:23.459,68635,-0.77,-0.55,0.36,10.11,6815
16:35:23.470,68645,-0.77,-0.43,0.56,10.39,6816
16:35:23.486,68655,-0.89,-0.38,0.60,11.40,6817
16:35:23.489,68665,-1.17,-0.25,0.43,12.72,6818
16:35:23.522,68675,-0.98,-0.47,0.32,11.31,6819
16:35:23.523,68685,-0.73,-0.85,0.22,11.44,6820
16:35:23.523,68695,-0.56,-1.03,0.05,11.76,6821
16:35:23.563,68705,-0.45,-1.07,-0.08,11.60,6822
16:35:23.564,68715,-0.39,-1.01,-0.10,10.89,6823
16:35:23.564,68725,-0.59,-0.82,-0.03,10.10,6824
16:35:23.569,68735,-0.72,-0.74,0.07,10.34,6825
16:35:23.605,68745,-0.82,-0.66,0.11,10.59,6826
16:35:23.605,68755,-0.90,-0.60,0.14,10.87,6827
16:35:23.606,68765,-0.92,-0.57,0.16,10.94,6828
16:35:23.606,68775,-0.89,-0.60,0.14,10.77,6829
16:35:23.610,68785,-0.82,-0.64,0.11,10.47,6830
16:35:23.646,68795,-0.79,-0.68,0.11,10.47,6831
16:35:23.647,68805,-0.76,-0.68,0.09,10.28,6832
16:35:23.647,68815,-0.76,-0.68,0.05,10.16,6833
16:35:23.650,68825,-0.76,-0.67,0.01,10.10,6834
16:35:23.686,68835,-0.76,-0.68,-0.01,10.26,6835
16:35:23.687,68845,-0.75,-0.69,0.00,10.14,6836
16:35:23.689,68855,-0.75,-0.70,0.00,10.21,6837
16:35:23.690,68865,-0.75,-0.67,-0.01,10.04,6838
16:35:23.728,68875,-0.77,-0.64,-0.00,10.04,6839
16:35:23.728,68885,-0.81,-0.62,0.02,10.17,6840
16:35:23.733,68895,-0.85,-0.58,0.04,10.26,6841
16:35:23.733,68905,-0.85,-0.58,0.07,10.30,6842
16:35:23.750,68915,-0.81,-0.61,0.07,10.17,6843
16:35:23.758,68925,-0.79,-0.63,0.06,10.08,6844
16:35:23.759,68935,-0.77,-0.66,0.04,10.13,6845
16:35:23.770,68945,-0.77,-0.69,0.03,10.35,6846
16:35:23.779,68955,-0.78,-0.69,0.02,10.36,6847
16:35:23.795,68965,-0.79,-0.66,0.01,10.32,6848
16:35:23.800,68975,-0.78,-0.65,-0.01,10.17,6849
16:35:23.817,68985,-0.78,-0.64,0.01,10.06,6850
16:35:23.819,68995,-0.81,-0.61,0.00,10.15,6851
16:35:23.831,69005,-0.83,-0.59,-0.00,10.15,6852
16:35:23.840,69015,-0.85,-0.56,0.01,10.16,6853
16:35:23.853,69025,-0.86,-0.54,0.01,10.20,6854
16:35:23.859,69035,-0.85,-0.54,-0.03,10.04,6855
16:35:23.869,69045,-0.81,-0.59,-0.04,10.01,6856
16:35:23.886,69055,-0.78,-0.66,-0.05,10.26,6857
16:35:23.889,69065,-0.78,-0.66,-0.02,10.18,6858
16:35:23.905,69075,-0.78,-0.63,-0.07,9.99,6859
16:35:23.909,69085,-0.77,-0.59,-0.03,9.73,6860
16:35:23.925,69095,-0.81,-0.58,-0.01,9.97,6861
16:35:23.929,69105,-0.81,-0.60,-0.00,10.06,6862
16:35:23.945,69115,-0.76,-0.67,0.01,10.14,6863
16:35:23.949,69125,-0.71,-0.71,0.00,10.07,6864
16:35:23.959,69135,-0.78,-0.68,-0.00,10.36,6865
16:35:23.969,69145,-0.90,-0.60,0.05,10.82,6866
16:35:23.981,69155,-0.99,-0.53,0.12,11.34,6867
16:35:23.996,69165,-1.05,-0.52,0.15,11.87,6868
16:35:23.999,69175,-1.04,-0.53,0.13,11.73,6869
16:35:24.009,69185,-1.02,-0.50,0.06,11.37,6870
16:35:24.023,69195,-1.09,-0.47,0.01,11.88,6871
16:35:24.029,69205,-1.16,-0.49,-0.07,12.60,6872
16:35:24.041,69215,-1.21,-0.70,-0.20,14.12,6873
16:35:24.050,69225,-1.33,-0.88,-0.15,16.05,6874
16:35:24.061,69235,-1.56,-0.79,-0.15,17.56,6875
16:35:24.074,69245,-1.51,-0.65,-0.22,16.57,6876
16:35:24.080,69255,-1.45,-0.56,-0.32,15.83,6877
16:35:24.090,69265,-1.54,-0.63,-0.32,16.91,6878
16:35:24.099,69275,-1.59,-0.86,-0.12,18.09,6879
16:35:24.117,69285,-1.45,-1.02,0.02,17.71,6880
16:35:24.119,69295,-1.06,-1.13,0.09,15.57,6881
16:35:24.132,69305,-0.67,-1.21,0.27,14.11,6882
16:35:24.146,69315,-0.49,-1.28,0.51,14.62,6883
16:35:24.149,69325,-0.41,-1.37,0.71,15.99,6884
16:35:24.167,69335,-0.37,-1.33,0.88,16.32,6885
16:35:24.170,69345,-0.39,-1.19,0.84,15.10,6886
16:35:24.182,69355,-0.34,-0.98,0.91,13.76,6887
16:35:24.192,69365,-0.14,-0.87,1.12,14.28,6888
16:35:24.201,69375,-0.01,-0.74,1.44,16.19,6889
16:35:24.212,69385,-0.08,-0.47,1.28,13.63,6890
16:35:24.222,69395,-0.30,-0.26,0.93,10.10,6891
16:35:24.229,69405,-0.42,-0.15,0.65,7.91,6892
16:35:24.244,69415,-0.44,-0.38,0.59,8.30,6893
16:35:24.250,69425,-0.34,-0.62,0.50,8.63,6894
16:35:24.286,69435,-0.23,-0.74,0.51,9.30,6895
16:35:24.286,69445,-0.05,-0.72,0.61,9.46,6896
16:35:24.288,69455,0.04,-0.67,0.57,8.83,6897
16:35:24.290,69465,0.06,-0.57,0.59,8.24,6898
16:35:24.327,69475,-0.00,-0.47,0.60,7.62,6899
16:35:24.328,69485,-0.11,-0.38,0.66,7.68,6900
16:35:24.329,69495,-0.17,-0.28,0.69,7.63,6901
16:35:24.331,69505,-0.20,-0.22,0.74,7.95,6902
16:35:24.368,69515,-0.14,-0.18,0.81,8.40,6903
16:35:24.369,69525,-0.07,-0.25,0.75,7.92,6904
16:35:24.371,69535,0.02,-0.37,0.73,8.18,6905
16:35:24.372,69545,0.07,-0.44,0.66,7.95,6906
16:35:24.401,69555,-0.05,-0.44,0.54,6.95,6907
16:35:24.402,69565,-0.20,-0.42,0.57,7.39,6908
16:35:24.405,69575,-0.31,-0.43,0.59,7.96,6909
16:35:24.444,69585,-0.39,-0.39,0.58,8.02,6910
16:35:24.447,69595,-0.44,-0.30,0.62,8.17,6911
16:35:24.447,69605,-0.45,-0.23,0.66,8.35,6912
16:35:24.447,69615,-0.57,-0.29,0.73,9.69,6913
16:35:24.495,69625,-0.71,-0.50,0.72,11.29,6914
16:35:24.497,69635,-0.80,-0.68,0.59,12.04,6915
16:35:24.498,69645,-0.72,-0.79,0.43,11.53,6916
16:35:24.499,69655,-0.60,-0.66,0.27,9.29,6917
16:35:24.501,69665,-0.60,-0.63,0.18,8.91,6918
16:35:24.504,69675,-0.77,-0.72,0.22,10.76,6919
16:35:24.509,69685,-0.74,-0.75,0.30,10.94,6920
16:35:24.524,69695,-0.78,-0.65,-0.19,10.30,6921
16:35:24.529,69705,-0.76,-0.20,-0.47,9.19,6922
16:35:24.539,69715,-0.91,0.25,-0.90,12.99,6923
16:35:24.554,69725,-1.06,0.52,-1.21,16.89,6924
16:35:24.559,69735,-1.10,0.62,-1.34,18.43,6925
16:35:24.569,69745,-0.94,0.23,-1.03,14.09,6926
16:35:24.585,69755,-0.65,-0.42,-0.72,10.58,6927
16:35:24.588,69765,-0.48,-0.60,-0.18,7.87,6928
16:35:24.604,69775,-0.54,-0.83,-0.01,9.90,6929
16:35:24.609,69785,-0.40,-0.86,0.05,9.53,6930
16:35:24.620,69795,-0.41,-0.70,0.09,8.16,6931
16:35:24.632,69805,-0.86,-0.60,0.20,10.70,6932
16:35:24.646,69815,-1.42,-0.64,0.25,15.76,6933
16:35:24.651,69825,-1.75,-0.57,0.26,18.62,6934
16:35:24.662,69835,-1.58,-0.26,0.13,16.11,6935
16:35:24.669,69845,-1.36,-0.02,-0.30,13.93,6936
16:35:24.678,69855,-1.14,-0.22,-0.52,12.69,6937
16:35:24.691,69865,-1.05,-0.44,0.02,11.36,6938
16:35:24.701,69875,-0.90,-0.87,0.04,12.53,6939
16:35:24.711,69885,-0.76,-0.97,-0.09,12.35,6940
16:35:24.725,69895,-0.49,-1.06,-0.13,11.70,6941
16:35:24.732,69905,-0.27,-1.09,0.11,11.30,6942
16:35:24.742,69915,-0.44,-0.94,0.27,10.69,6943
16:35:24.749,69925,-0.68,-0.72,0.40,10.66,6944
16:35:24.766,69935,-0.75,-0.52,0.59,10.94,6945
16:35:24.772,69945,-0.80,-0.33,0.65,10.80,6946
16:35:24.779,69955,-1.11,-0.19,0.53,12.40,6947
16:35:24.795,69965,-1.17,-0.21,0.40,12.50,6948
16:35:24.822,69975,-0.93,-0.65,0.23,11.54,6949
16:35:24.822,69985,-0.65,-0.93,0.23,11.56,6950
16:35:24.825,69995,-0.44,-1.01,0.04,11.04,6951
16:35:24.829,70005,-0.31,-1.08,-0.03,11.27,6952
16:35:24.839,70015,-0.33,-1.13,0.03,11.74,6953
16:35:24.850,70025,-0.53,-0.91,0.12,10.62,6954
16:35:24.859,70035,-0.65,-0.77,0.17,10.18,6955
16:35:24.874,70045,-0.78,-0.72,0.18,10.82,6956
16:35:24.880,70055,-0.93,-0.60,0.23,11.32,6957
16:35:24.889,70065,-1.02,-0.50,0.27,11.65,6958
16:35:24.903,70075,-1.08,-0.37,0.30,11.84,6959
16:35:24.915,70085,-0.99,-0.35,0.31,10.98,6960
16:35:24.919,70095,-0.81,-0.54,0.21,10.00,6961
16:35:24.931,70105,-0.74,-0.67,0.14,10.11,6962
16:35:24.939,70115,-0.66,-0.83,0.10,10.66,6963
16:35:24.949,70125,-0.60,-0.92,0.05,11.01,6964
16:35:24.959,70135,-0.57,-0.89,-0.00,10.58,6965
16:35:24.969,70145,-0.67,-0.77,0.03,10.20,6966
16:35:24.979,70155,-0.79,-0.67,0.07,10.36,6967
16:35:24.996,70165,-0.86,-0.57,0.07,10.36,6968
16:35:25.001,70175,-0.90,-0.50,0.11,10.37,6969
16:35:25.010,70185,-0.86,-0.54,0.11,10.26,6970
16:35:25.021,70195,-0.78,-0.60,0.04,9.88,6971
16:35:25.032,70205,-0.74,-0.68,0.01,10.08,6972
16:35:25.043,70215,-0.71,-0.75,-0.01,10.28,6973
16:35:25.094,70225,-0.70,-0.75,-0.01,10.25,6974
16:35:25.095,70235,-0.74,-0.71,0.00,10.28,6975
16:35:25.095,70245,-0.76,-0.67,0.05,10.15,6976
16:35:25.096,70255,-0.76,-0.66,0.10,10.06,6977
16:35:25.097,70265,-0.76,-0.62,0.10,9.82,6978
16:35:25.134,70275,-0.79,-0.58,0.08,9.87,6979
16:35:25.134,70285,-0.80,-0.58,0.07,9.94,6980
16:35:25.136,70295,-0.80,-0.62,0.05,10.16,6981
16:35:25.137,70305,-0.82,-0.63,0.01,10.32,6982
16:35:25.139,70315,-0.78,-0.66,-0.02,10.21,6983
16:35:25.175,70325,-0.76,-0.64,-0.02,9.98,6984
16:35:25.176,70335,-0.76,-0.62,-0.05,9.81,6985
16:35:25.177,70345,-0.75,-0.61,-0.05,9.69,6986
16:35:25.179,70355,-0.77,-0.63,-0.04,9.97,6987
16:35:25.217,70365,-0.79,-0.62,-0.02,10.01,6988
16:35:25.217,70375,-0.78,-0.62,0.01,9.95,6989
16:35:25.218,70385,-0.78,-0.62,0.02,9.99,6990
16:35:25.219,70395,-0.76,-0.63,0.02,9.87,6991
16:35:25.259,70405,-0.79,-0.63,0.08,10.13,6992
16:35:25.259,70415,-0.81,-0.60,0.11,10.13,6993
16:35:25.260,70425,-0.75,-0.65,0.10,10.02,6994
16:35:25.262,70435,-0.75,-0.67,0.06,10.04,6995
16:35:25.272,70445,-0.81,-0.64,0.07,10.30,6996
16:35:25.281,70455,-0.88,-0.61,0.09,10.77,6997
16:35:25.292,70465,-0.95,-0.57,0.08,11.13,6998
16:35:25.302,70475,-1.00,-0.53,0.03,11.37,6999
16:35:25.309,70485,-1.01,-0.68,-0.02,12.18,7000
16:35:25.325,70495,-1.08,-0.84,0.06,13.67,7001
16:35:25.329,70505,-1.33,-0.75,0.03,15.33,7002
16:35:25.339,70515,-1.47,-0.62,-0.16,15.99,7003
16:35:25.354,70525,-1.45,-0.47,-0.22,15.46,7004
16:35:25.359,70535,-1.56,-0.50,-0.34,16.76,7005
16:35:25.370,70545,-1.59,-0.59,-0.32,17.29,7006
16:35:25.384,70555,-1.65,-0.65,-0.14,17.75,7007
16:35:25.394,70565,-1.59,-0.71,-0.11,17.50,7008
16:35:25.400,70575,-1.25,-0.85,-0.03,15.13,7009
16:35:25.410,70585,-0.95,-1.01,0.14,13.97,7010
16:35:25.419,70595,-0.76,-1.17,0.28,14.18,7011
16:35:25.436,70605,-0.67,-1.28,0.50,15.29,7012
16:35:25.440,70615,-0.56,-1.33,0.76,16.32,7013
16:35:25.452,70625,-0.53,-1.31,0.85,16.48,7014
16:35:25.461,70635,-0.58,-1.03,0.79,14.23,7015
16:35:25.470,70645,-0.48,-0.84,0.80,12.54,7016
16:35:25.479,70655,-0.23,-0.75,1.12,13.72,7017
16:35:25.497,70665,-0.10,-0.64,1.42,15.64,7018
16:35:25.499,70675,-0.14,-0.48,1.18,12.82,7019
16:35:25.510,70685,-0.40,-0.34,0.83,9.77,7020
16:35:25.524,70695,-0.51,-0.36,0.64,8.90,7021
16:35:25.530,70705,-0.42,-0.60,0.65,9.85,7022
16:35:25.548,70715,-0.35,-0.82,0.64,10.97,7023
16:35:25.550,70725,-0.19,-0.88,0.71,11.42,7024
16:35:25.560,70735,0.01,-0.82,0.71,10.81,7025
16:35:25.575,70745,0.16,-0.70,0.64,9.59,7026
16:35:25.579,70755,0.16,-0.52,0.62,8.22,7027
16:35:25.593,70765,-0.01,-0.43,0.66,7.83,7028
16:35:25.599,70775,-0.16,-0.34,0.62,7.23,7029
16:35:25.616,70785,-0.22,-0.31,0.68,7.73,7030
16:35:25.619,70795,-0.21,-0.25,0.74,8.09,7031
16:35:25.630,70805,-0.10,-0.24,0.78,8.23,7032
16:35:25.641,70815,-0.03,-0.32,0.72,7.87,7033
16:35:25.651,70825,-0.01,-0.39,0.66,7.69,7034
16:35:25.659,70835,-0.11,-0.36,0.58,6.93,7035
16:35:25.670,70845,-0.22,-0.35,0.59,7.20,7036
16:35:25.680,70855,-0.32,-0.35,0.64,7.92,7037
16:35:25.719,70865,-0.35,-0.38,0.59,7.87,7038
16:35:25.719,70875,-0.36,-0.41,0.58,7.98,7039
16:35:25.720,70885,-0.35,-0.38,0.56,7.63,7040
16:35:25.722,70895,-0.37,-0.47,0.56,8.19,7041
16:35:25.826,70905,-0.38,-0.62,0.55,9.09,7042
16:35:25.826,70915,-0.47,-0.78,0.51,10.42,7043
16:35:25.827,70925,-0.53,-0.86,0.46,11.11,7044
16:35:25.864,70935,-0.55,-0.77,0.34,10.06,7045
16:35:25.865,70945,-0.59,-0.74,0.24,9.73,7046
16:35:25.865,70955,-0.73,-0.56,0.26,9.54,7047
16:35:25.867,70965,-0.93,-0.54,0.24,11.03,7048
16:35:25.868,70975,-0.91,-0.48,0.33,10.76,7049
16:35:25.869,70985,-0.74,-0.24,-0.08,7.83,7050
16:35:25.906,70995,-0.73,0.17,-0.38,8.42,7051
16:35:25.908,71005,-0.93,0.31,-0.59,11.43,7052
16:35:25.908,71015,-1.09,0.32,-0.79,13.84,7053
16:35:25.908,71025,-1.00,0.13,-0.84,13.08,7054
16:35:25.908,71035,-0.92,-0.14,-1.02,13.82,7055
16:35:25.908,71045,-0.72,-0.38,-0.78,11.22,7056
16:35:25.909,71055,-0.58,-0.52,-0.41,8.78,7057
16:35:25.910,71065,-0.53,-0.68,-0.20,8.89,7058
16:35:25.911,71075,-0.62,-0.74,-0.12,9.72,7059
16:35:25.913,71085,-1.20,-0.76,-0.05,14.18,7060
16:35:25.946,71095,-1.74,-0.51,0.27,18.31,7061
16:35:25.946,71105,-2.08,-0.19,0.29,21.07,7062
16:35:25.946,71115,-1.79,0.28,-0.16,18.16,7063
16:35:25.948,71125,-1.29,0.44,-0.34,14.01,7064
16:35:25.962,71135,-1.00,-0.32,-0.31,10.95,7065
16:35:25.969,71145,-0.71,-0.75,0.55,11.69,7066
16:35:25.982,71155,-0.60,-1.11,0.36,13.11,7067
16:35:25.990,71165,-0.32,-1.13,0.16,11.88,7068
16:35:26.002,71175,-0.06,-1.05,0.35,11.08,7069
16:35:26.011,71185,-0.13,-1.02,0.33,10.80,7070
16:35:26.021,71195,-0.41,-0.74,0.37,9.22,7071
16:35:26.038,71205,-0.66,-0.63,0.41,10.01,7072
16:35:26.039,71215,-0.83,-0.62,0.45,11.31,7073
16:35:26.054,71225,-0.96,-0.59,0.40,11.97,7074
16:35:26.061,71235,-1.07,-0.56,0.27,12.35,7075
16:35:26.074,71245,-0.95,-0.61,0.20,11.50,7076
16:35:26.101,71255,-0.72,-0.77,0.15,10.65,7077
16:35:26.102,71265,-0.58,-0.85,0.14,10.42,7078
16:35:26.103,71275,-0.51,-0.91,0.09,10.50,7079
16:35:26.109,71285,-0.55,-0.81,0.15,9.95,7080
16:35:26.124,71295,-0.68,-0.64,0.13,9.45,7081
16:35:26.129,71305,-0.75,-0.66,0.14,10.12,7082
16:35:26.143,71315,-0.85,-0.65,0.16,10.88,7083
16:35:26.153,71325,-0.93,-0.61,0.18,11.25,7084
16:35:26.159,71335,-0.92,-0.63,0.16,11.22,7085
16:35:26.170,71345,-0.87,-0.62,0.15,10.77,7086
16:35:26.186,71355,-0.83,-0.58,0.13,10.25,7087
16:35:26.189,71365,-0.81,-0.61,0.13,10.21,7088
16:35:26.199,71375,-0.80,-0.66,0.11,10.39,7089
16:35:26.210,71385,-0.76,-0.71,0.08,10.43,7090
16:35:26.222,71395,-0.71,-0.76,0.01,10.41,7091
16:35:26.231,71405,-0.65,-0.81,-0.01,10.37,7092
16:35:26.241,71415,-0.61,-0.85,0.01,10.47,7093
16:35:26.251,71425,-0.64,-0.83,0.08,10.46,7094
16:35:26.267,71435,-0.69,-0.74,0.13,10.17,7095
16:35:26.269,71445,-0.76,-0.65,0.15,10.12,7096
16:35:26.279,71455,-0.85,-0.53,0.17,10.19,7097
16:35:26.289,71465,-0.92,-0.43,0.15,10.31,7098
16:35:26.299,71475,-0.92,-0.41,0.13,10.21,7099
16:35:26.313,71485,-0.82,-0.55,0.09,9.90,7100
16:35:26.321,71495,-0.77,-0.65,0.07,10.09,7101
16:35:26.337,71505,-0.73,-0.72,0.09,10.31,7102
16:35:26.339,71515,-0.74,-0.71,0.09,10.33,7103
16:35:26.355,71525,-0.76,-0.67,0.11,10.18,7104
16:35:26.360,71535,-0.77,-0.64,0.12,10.09,7105
16:35:26.373,71545,-0.79,-0.63,0.13,10.15,7106
16:35:26.382,71555,-0.80,-0.62,0.12,10.21,7107
16:35:26.392,71565,-0.81,-0.60,0.11,10.12,7108
16:35:26.401,71575,-0.83,-0.58,0.08,10.18,7109
16:35:26.410,71585,-0.84,-0.59,0.07,10.30,7110
16:35:26.425,71595,-0.84,-0.60,0.06,10.33,7111
16:35:26.429,71605,-0.85,-0.56,0.01,10.21,7112
16:35:26.439,71615,-0.83,-0.55,-0.04,10.03,7113
16:35:26.448,71625,-0.83,-0.58,-0.08,10.14,7114
16:35:26.459,71635,-0.82,-0.63,-0.11,10.40,7115
16:35:26.500,71645,-0.83,-0.65,-0.15,10.62,7116
16:35:26.500,71655,-0.81,-0.65,-0.18,10.55,7117
16:35:26.501,71665,-0.81,-0.61,-0.17,10.28,7118
16:35:26.502,71675,-0.81,-0.60,-0.13,10.18,7119
16:35:26.540,71685,-0.80,-0.60,-0.11,10.04,7120
16:35:26.541,71695,-0.77,-0.62,-0.11,9.97,7121
16:35:26.543,71705,-0.77,-0.63,-0.12,10.07,7122
16:35:26.544,71715,-0.82,-0.61,-0.09,10.29,7123
16:35:26.582,71725,-0.95,-0.54,-0.02,10.88,7124
16:35:26.582,71735,-1.08,-0.46,0.04,11.75,7125
16:35:26.584,71745,-1.13,-0.46,0.05,12.19,7126
16:35:26.585,71755,-1.11,-0.69,0.02,13.07,7127
16:35:26.617,71765,-1.19,-0.78,0.10,14.21,7128
16:35:26.617,71775,-1.39,-0.64,0.10,15.32,7129
16:35:26.618,71785,-1.41,-0.50,0.01,15.01,7130
16:35:26.620,71795,-1.48,-0.47,-0.15,15.64,7131
16:35:26.660,71805,-1.59,-0.47,-0.24,16.78,7132
16:35:26.660,71815,-1.71,-0.52,-0.30,18.17,7133
16:35:26.662,71825,-1.73,-0.56,-0.17,18.24,7134
16:35:26.663,71835,-1.54,-0.68,-0.12,16.89,7135
16:35:26.691,71845,-1.22,-0.92,0.01,15.26,7136
16:35:26.692,71855,-0.93,-1.10,0.15,14.54,7137
16:35:26.693,71865,-0.70,-1.26,0.39,14.92,7138
16:35:26.699,71875,-0.59,-1.31,0.72,16.09,7139
16:35:26.713,71885,-0.49,-1.32,0.94,16.95,7140
16:35:26.720,71895,-0.48,-1.20,0.88,15.68,7141
16:35:26.729,71905,-0.34,-0.97,0.96,14.04,7142
16:35:26.740,71915,-0.16,-0.88,1.29,15.74,7143
16:35:26.755,71925,-0.13,-0.71,1.42,15.95,7144
16:35:26.759,71935,-0.33,-0.44,1.11,12.41,7145
16:35:26.773,71945,-0.54,-0.25,0.82,10.16,7146
16:35:26.780,71955,-0.49,-0.25,0.67,8.69,7147
16:35:26.794,71965,-0.42,-0.57,0.60,9.24,7148
16:35:26.800,71975,-0.26,-0.80,0.63,10.45,7149
16:35:26.810,71985,-0.06,-0.78,0.67,10.33,7150
16:35:26.821,71995,0.07,-0.75,0.62,9.76,7151
16:35:26.833,72005,0.11,-0.65,0.64,9.24,7152
16:35:26.840,72015,0.03,-0.56,0.65,8.61,7153
16:35:26.850,72025,-0.11,-0.48,0.65,8.17,7154
16:35:26.859,72035,-0.19,-0.41,0.68,8.19,7155
16:35:26.870,72045,-0.21,-0.30,0.72,8.08,7156
16:35:26.881,72055,-0.16,-0.25,0.72,7.78,7157
16:35:26.890,72065,-0.04,-0.24,0.74,7.78,7158
16:35:26.899,72075,-0.05,-0.29,0.65,7.12,7159
16:35:26.909,72085,-0.11,-0.38,0.62,7.34,7160
16:35:26.919,72095,-0.24,-0.40,0.61,7.64,7161
16:35:26.930,72105,-0.38,-0.36,0.65,8.38,7162
16:35:26.943,72115,-0.48,-0.31,0.68,8.91,7163
16:35:26.953,72125,-0.47,-0.29,0.65,8.54,7164
16:35:26.959,72135,-0.43,-0.28,0.60,7.86,7165
16:35:26.977,72145,-0.37,-0.29,0.56,7.36,7166
16:35:26.980,72155,-0.39,-0.48,0.59,8.50,7167
16:35:27.039,72165,-0.42,-0.68,0.52,9.55,7168
16:35:27.039,72175,-0.39,-0.80,0.41,9.75,7169
16:35:27.040,72185,-0.32,-0.75,0.39,9.05,7170
16:35:27.041,72195,-0.47,-0.77,0.42,9.98,7171
16:35:27.042,72205,-0.52,-0.72,0.48,10.06,7172
16:35:27.044,72215,-0.63,-0.63,0.47,10.08,7173
16:35:27.048,72225,-0.74,-0.60,0.48,10.68,7174
16:35:27.081,72235,-0.81,-0.57,0.34,10.45,7175
16:35:27.081,72245,-0.80,-0.38,0.10,8.85,7176
16:35:27.083,72255,-0.80,-0.20,-0.09,8.31,7177
16:35:27.089,72265,-0.89,-0.08,-0.22,9.24,7178
16:35:27.102,72275,-0.93,0.00,-0.41,10.18,7179
16:35:27.114,72285,-1.04,0.07,-0.76,12.95,7180
16:35:27.119,72295,-1.02,0.22,-1.14,15.44,7181
16:35:27.131,72305,-0.89,0.29,-1.61,18.64,7182
16:35:27.139,72315,-0.76,0.07,-1.44,16.28,7183
16:35:27.149,72325,-0.66,-0.20,-0.73,10.07,7184
16:35:27.160,72335,-0.62,-0.43,-0.33,8.23,7185
16:35:27.169,72345,-0.55,-0.69,-0.21,9.01,7186
16:35:27.185,72355,-0.37,-0.77,-0.07,8.61,7187
16:35:27.189,72365,-0.30,-0.71,0.00,7.72,7188
16:35:27.206,72375,-0.44,-0.57,0.12,7.28,7189
16:35:27.216,72385,-0.61,-0.41,0.36,8.20,7190
16:35:27.223,72395,-1.05,-0.43,0.46,12.23,7191
16:35:27.271,72405,-1.68,-0.49,0.40,17.93,7192
16:35:27.271,72415,-2.13,-0.58,0.28,22.21,7193
16:35:27.273,72425,-1.94,-0.35,0.12,19.75,7194
16:35:27.273,72435,-1.67,0.14,-0.30,17.07,7195
16:35:27.275,72445,-1.43,0.06,-0.79,16.38,7196
16:35:27.313,72455,-1.23,-0.53,-0.34,13.81,7197
16:35:27.313,72465,-1.03,-0.96,-0.08,14.09,7198
16:35:27.314,72475,-0.82,-0.83,0.02,11.63,7199
16:35:27.315,72485,-0.56,-0.57,0.13,8.11,7200
16:35:27.353,72495,-0.55,-0.47,0.21,7.53,7201
16:35:27.353,72505,-0.53,-0.50,0.31,7.91,7202
16:35:27.354,72515,-0.51,-0.62,0.44,9.15,7203
16:35:27.356,72525,-0.57,-0.74,0.48,10.51,7204
16:35:27.358,72535,-0.78,-0.74,0.42,11.51,7205
16:35:27.395,72545,-0.83,-0.66,0.37,11.22,7206
16:35:27.395,72555,-0.83,-0.64,0.20,10.66,7207
16:35:27.396,72565,-0.73,-0.73,0.09,10.34,7208
16:35:27.399,72575,-0.64,-0.86,0.08,10.78,7209
16:35:27.436,72585,-0.62,-0.90,0.05,10.91,7210
16:35:27.437,72595,-0.63,-0.90,0.03,10.93,7211
16:35:27.438,72605,-0.66,-0.82,0.02,10.56,7212
16:35:27.439,72615,-0.73,-0.72,0.04,10.31,7213
16:35:27.473,72625,-0.80,-0.66,0.11,10.44,7214
16:35:27.473,72635,-0.85,-0.57,0.16,10.34,7215
16:35:27.474,72645,-0.87,-0.53,0.17,10.27,7216
16:35:27.478,72655,-0.85,-0.55,0.18,10.26,7217
16:35:27.498,72665,-0.81,-0.61,0.20,10.40,7218
16:35:27.499,72675,-0.78,-0.67,0.17,10.41,7219
16:35:27.509,72685,-0.75,-0.71,0.13,10.43,7220
16:35:27.523,72695,-0.75,-0.74,0.13,10.61,7221
16:35:27.530,72705,-0.79,-0.71,0.12,10.71,7222
16:35:27.540,72715,-0.77,-0.69,0.12,10.43,7223
16:35:27.551,72725,-0.74,-0.70,0.12,10.24,7224
16:35:27.562,72735,-0.73,-0.71,0.11,10.22,7225
16:35:27.572,72745,-0.70,-0.72,0.11,10.08,7226
16:35:27.583,72755,-0.69,-0.73,0.12,10.15,7227
16:35:27.593,72765,-0.70,-0.73,0.11,10.15,7228
16:35:27.602,72775,-0.70,-0.72,0.12,10.10,7229
16:35:27.609,72785,-0.72,-0.69,0.12,10.00,7230
16:35:27.619,72795,-0.77,-0.63,0.11,9.96,7231
16:35:27.630,72805,-0.80,-0.58,0.13,9.98,7232
16:35:27.643,72815,-0.83,-0.57,0.16,10.21,7233
16:35:27.652,72825,-0.84,-0.56,0.17,10.17,7234
16:35:27.662,72835,-0.82,-0.58,0.17,10.21,7235
16:35:27.671,72845,-0.82,-0.62,0.15,10.32,7236
16:35:27.681,72855,-0.78,-0.65,0.09,10.17,7237
16:35:27.690,72865,-0.75,-0.67,0.07,10.06,7238
16:35:27.701,72875,-0.76,-0.65,0.07,10.03,7239
16:35:27.709,72885,-0.81,-0.62,0.08,10.23,7240
16:35:27.719,72895,-0.85,-0.59,0.08,10.35,7241
16:35:27.730,72905,-0.87,-0.58,0.05,10.49,7242
16:35:27.740,72915,-0.88,-0.58,0.04,10.54,7243
16:35:27.751,72925,-0.87,-0.56,0.01,10.35,7244
16:35:27.762,72935,-0.88,-0.53,-0.00,10.29,7245
16:35:27.774,72945,-0.86,-0.55,-0.05,10.18,7246
16:35:27.779,72955,-0.79,-0.62,-0.11,10.06,7247
16:35:27.791,72965,-0.76,-0.67,-0.14,10.18,7248
16:35:27.801,72975,-0.81,-0.65,-0.15,10.48,7249
16:35:27.817,72985,-0.87,-0.59,-0.13,10.55,7250
16:35:27.820,72995,-0.90,-0.54,-0.12,10.55,7251
16:35:27.829,73005,-0.85,-0.56,-0.08,10.19,7252
16:35:27.843,73015,-0.79,-0.64,-0.09,10.19,7253
16:35:27.849,73025,-0.77,-0.64,-0.11,10.02,7254
16:35:27.868,73035,-0.83,-0.56,-0.07,10.05,7255
16:35:27.870,73045,-0.95,-0.47,-0.05,10.65,7256
16:35:27.886,73055,-1.02,-0.45,-0.03,11.14,7257
16:35:27.889,73065,-1.04,-0.40,0.02,11.11,7258
16:35:27.899,73075,-1.08,-0.40,0.08,11.51,7259
16:35:27.910,73085,-1.15,-0.42,0.06,12.29,7260
16:35:27.923,73095,-1.24,-0.64,0.06,13.99,7261
16:35:27.930,73105,-1.42,-0.83,0.19,16.58,7262
16:35:27.975,73115,-1.69,-0.79,0.05,18.68,7263
16:35:27.975,73125,-1.64,-0.56,-0.15,17.45,7264
16:35:27.977,73135,-1.66,-0.45,-0.48,17.90,7265
16:35:28.011,73145,-1.61,-0.66,-0.43,17.90,7266
16:35:28.013,73155,-1.56,-0.96,-0.14,18.38,7267
16:35:28.015,73165,-1.39,-1.13,0.01,17.95,7268
16:35:28.016,73175,-1.02,-1.21,0.07,15.85,7269
16:35:28.016,73185,-0.69,-1.26,0.36,14.81,7270
16:35:28.054,73195,-0.60,-1.42,0.70,16.90,7271
16:35:28.055,73205,-0.57,-1.37,0.90,17.33,7272
16:35:28.055,73215,-0.35,-1.21,0.98,15.93,7273
16:35:28.057,73225,-0.43,-0.91,0.91,13.59,7274
16:35:28.093,73235,-0.26,-0.78,1.09,13.60,7275
16:35:28.093,73245,-0.04,-0.70,1.38,15.51,7276
16:35:28.096,73255,0.01,-0.51,1.33,14.22,7277
16:35:28.098,73265,-0.13,-0.26,0.95,9.96,7278
16:35:28.136,73275,-0.24,-0.15,0.70,7.61,7279
16:35:28.136,73285,-0.37,-0.29,0.56,7.33,7280
16:35:28.136,73295,-0.38,-0.59,0.60,9.20,7281
16:35:28.139,73305,-0.32,-0.83,0.65,11.03,7282
16:35:28.140,73315,-0.09,-0.81,0.65,10.46,7283
16:35:28.172,73325,0.09,-0.68,0.61,9.19,7284
16:35:28.173,73335,0.16,-0.52,0.54,7.63,7285
16:35:28.173,73345,0.08,-0.37,0.59,6.98,7286
16:35:28.180,73355,-0.06,-0.29,0.63,6.99,7287
16:35:28.191,73365,-0.21,-0.27,0.71,7.90,7288
16:35:28.205,73375,-0.31,-0.28,0.76,8.66,7289
16:35:28.209,73385,-0.32,-0.31,0.78,8.94,7290
16:35:28.222,73395,-0.19,-0.35,0.72,8.18,7291
16:35:28.229,73405,-0.09,-0.40,0.62,7.40,7292
16:35:28.243,73415,-0.10,-0.42,0.63,7.64,7293
16:35:28.252,73425,-0.18,-0.44,0.64,8.01,7294
16:35:28.261,73435,-0.32,-0.45,0.65,8.55,7295
16:35:28.270,73445,-0.32,-0.46,0.72,9.09,7296
16:35:28.279,73455,-0.31,-0.47,0.61,8.35,7297
16:35:28.296,73465,-0.28,-0.44,0.49,7.16,7298
16:35:28.299,73475,-0.32,-0.47,0.51,7.60,7299
16:35:28.331,73485,-0.37,-0.48,0.41,7.34,7300
16:35:28.332,73495,-0.40,-0.58,0.41,8.19,7301
16:35:28.333,73505,-0.45,-0.71,0.49,9.75,7302
16:35:28.339,73515,-0.53,-0.74,0.53,10.55,7303
16:35:28.361,73525,-0.60,-0.75,0.52,10.98,7304
16:35:28.362,73535,-0.63,-0.66,0.38,9.91,7305
16:35:28.379,73545,-0.70,-0.58,0.29,9.53,7306
16:35:28.380,73555,-0.75,-0.50,0.30,9.54,7307
16:35:28.395,73565,-0.74,-0.41,0.31,9.04,7308
16:35:28.401,73575,-0.81,-0.23,0.01,8.41,7309
16:35:28.414,73585,-0.93,0.05,-0.18,9.47,7310
16:35:28.419,73595,-1.13,0.25,-0.22,11.76,7311
16:35:28.430,73605,-1.28,0.37,-0.43,14.05,7312
16:35:28.441,73615,-1.20,0.33,-0.69,14.23,7313
16:35:28.451,73625,-0.88,-0.03,-0.89,12.53,7314
16:35:28.459,73635,-0.66,-0.22,-1.00,12.24,7315
16:35:28.472,73645,-0.47,-0.38,-0.74,9.52,7316
16:35:28.484,73655,-0.40,-0.55,-0.40,7.91,7317
16:35:28.492,73665,-0.42,-0.76,-0.14,8.81,7318
16:35:28.500,73675,-0.53,-0.93,-0.01,10.72,7319
16:35:28.517,73685,-0.66,-0.88,0.01,11.02,7320
16:35:28.518,73695,-1.11,-0.71,0.08,13.18,7321
16:35:28.529,73705,-1.67,-0.55,0.14,17.64,7322
16:35:28.541,73715,-2.07,-0.27,0.12,20.92,7323
16:35:28.555,73725,-1.96,0.19,-0.10,19.76,7324
16:35:28.560,73735,-1.55,0.32,-0.29,16.06,7325
16:35:28.570,73745,-1.08,-0.49,-0.37,12.39,7326
16:35:28.586,73755,-0.76,-0.80,-0.05,11.00,7327
16:35:28.589,73765,-0.60,-0.93,-0.00,11.07,7328
16:35:28.599,73775,-0.52,-0.90,-0.03,10.44,7329
16:35:28.610,73785,-0.34,-0.95,0.24,10.34,7330
16:35:28.623,73795,-0.36,-1.01,0.38,11.38,7331
16:35:28.634,73805,-0.54,-0.90,0.39,11.19,7332
16:35:28.662,73815,-0.69,-0.64,0.49,10.66,7333
16:35:28.696,73825,-0.81,-0.46,0.53,10.74,7334
16:35:28.697,73835,-1.02,-0.32,0.58,12.19,7335
16:35:28.700,73845,-1.24,-0.26,0.54,13.75,7336
16:35:28.700,73855,-1.06,-0.46,0.43,12.29,7337
16:35:28.701,73865,-0.77,-0.70,0.25,10.72,7338
16:35:28.702,73875,-0.60,-0.82,0.02,10.17,7339
16:35:28.738,73885,-0.49,-0.98,-0.11,11.00,7340
16:35:28.739,73895,-0.36,-1.09,-0.12,11.57,7341
16:35:28.740,73905,-0.46,-1.05,-0.08,11.51,7342
16:35:28.742,73915,-0.65,-0.82,0.01,10.46,7343
16:35:28.776,73925,-0.76,-0.73,0.07,10.54,7344
16:35:28.778,73935,-0.86,-0.64,0.11,10.79,7345
16:35:28.779,73945,-0.95,-0.56,0.17,11.16,7346
16:35:28.780,73955,-0.98,-0.49,0.18,11.08,7347
16:35:28.818,73965,-0.94,-0.45,0.16,10.54,7348
16:35:28.818,73975,-0.84,-0.52,0.08,9.98,7349
16:35:28.819,73985,-0.80,-0.59,0.04,10.01,7350
16:35:28.820,73995,-0.79,-0.66,0.03,10.26,7351
16:35:28.858,74005,-0.74,-0.71,-0.00,10.27,7352
16:35:28.859,74015,-0.70,-0.74,-0.04,10.24,7353
16:35:28.860,74025,-0.68,-0.74,-0.06,10.06,7354
16:35:28.861,74035,-0.67,-0.73,-0.04,9.98,7355
16:35:28.895,74045,-0.71,-0.70,-0.03,9.96,7356
16:35:28.896,74055,-0.77,-0.66,-0.00,10.15,7357
16:35:28.897,74065,-0.84,-0.62,0.07,10.47,7358
16:35:28.899,74075,-0.88,-0.58,0.13,10.57,7359
16:35:28.911,74085,-0.84,-0.58,0.14,10.32,7360
16:35:28.928,74095,-0.78,-0.62,0.13,10.01,7361
16:35:28.930,74105,-0.75,-0.67,0.12,10.13,7362
16:35:28.939,74115,-0.73,-0.71,0.09,10.21,7363
16:35:28.952,74125,-0.73,-0.72,0.07,10.25,7364
16:35:28.962,74135,-0.74,-0.71,0.05,10.28,7365
16:35:28.970,74145,-0.79,-0.68,0.04,10.42,7366
16:35:28.980,74155,-0.82,-0.65,0.03,10.49,7367
16:35:28.992,74165,-0.80,-0.66,0.02,10.33,7368
16:35:29.001,74175,-0.78,-0.68,-0.02,10.32,7369
16:35:29.009,74185,-0.74,-0.71,-0.02,10.26,7370
16:35:29.025,74195,-0.76,-0.68,-0.01,10.21,7371
16:35:29.029,74205,-0.81,-0.62,0.01,10.24,7372
16:35:29.045,74215,-0.84,-0.59,0.02,10.28,7373
16:35:29.051,74225,-0.82,-0.62,0.00,10.31,7374
16:35:29.059,74235,-0.78,-0.63,-0.03,10.04,7375
16:35:29.069,74245,-0.77,-0.61,-0.05,9.81,7376
16:35:29.085,74255,-0.82,-0.55,-0.03,9.86,7377
16:35:29.089,74265,-0.86,-0.56,0.01,10.23,7378
16:35:29.104,74275,-0.85,-0.58,0.03,10.30,7379
16:35:29.110,74285,-0.81,-0.61,0.00,10.14,7380
16:35:29.121,74295,-0.82,-0.61,0.00,10.21,7381
16:35:29.131,74305,-0.85,-0.61,-0.02,10.47,7382
16:35:29.139,74315,-0.88,-0.60,-0.07,10.65,7383
16:35:29.150,74325,-0.89,-0.60,-0.09,10.78,7384
16:35:29.160,74335,-0.90,-0.63,0.05,11.02,7385
16:35:29.170,74345,-0.96,-0.63,0.14,11.53,7386
16:35:29.188,74355,-0.98,-0.56,0.16,11.36,7387
16:35:29.189,74365,-0.99,-0.48,0.16,11.12,7388
16:35:29.205,74375,-1.04,-0.44,0.10,11.37,7389
16:35:29.209,74385,-1.10,-0.55,0.01,12.30,7390
16:35:29.220,74395,-1.18,-0.77,-0.03,14.11,7391
16:35:29.229,74405,-1.47,-0.77,-0.10,16.62,7392
16:35:29.252,74415,-1.62,-0.65,-0.26,17.65,7393
16:35:29.255,74425,-1.65,-0.44,-0.36,17.50,7394
16:35:29.259,74435,-1.63,-0.38,-0.55,17.60,7395
16:35:29.273,74445,-1.50,-0.63,-0.39,16.71,7396
16:35:29.279,74455,-1.39,-0.87,0.01,16.40,7397
16:35:29.294,74465,-1.24,-1.05,0.12,16.27,7398
16:35:29.303,74475,-0.88,-1.08,0.28,14.20,7399
16:35:29.314,74485,-0.60,-1.13,0.40,13.42,7400
16:35:29.322,74495,-0.52,-1.21,0.68,14.83,7401
16:35:29.331,74505,-0.48,-1.33,0.89,16.68,7402
16:35:29.339,74515,-0.50,-1.31,1.07,17.69,7403
16:35:29.351,74525,-0.63,-1.10,0.88,15.46,7404
16:35:29.360,74535,-0.57,-0.94,0.79,13.52,7405
16:35:29.370,74545,-0.24,-0.87,1.10,14.18,7406
16:35:29.379,74555,0.06,-0.75,1.28,14.87,7407
16:35:29.389,74565,0.07,-0.62,1.19,13.41,7408
16:35:29.404,74575,-0.14,-0.37,0.86,9.47,7409
16:35:29.410,74585,-0.38,-0.30,0.55,7.38,7410
16:35:29.446,74595,-0.50,-0.55,0.54,9.17,7411
16:35:29.447,74605,-0.41,-0.75,0.60,10.41,7412
16:35:29.447,74615,-0.29,-0.80,0.60,10.43,7413
16:35:29.449,74625,-0.05,-0.79,0.63,10.11,7414
16:35:29.486,74635,0.12,-0.73,0.59,9.49,7415
16:35:29.487,74645,0.15,-0.60,0.57,8.46,7416
16:35:29.489,74655,0.05,-0.47,0.60,7.63,7417
16:35:29.490,74665,-0.08,-0.38,0.65,7.58,7418
16:35:29.520,74675,-0.15,-0.29,0.67,7.47,7419
16:35:29.521,74685,-0.18,-0.22,0.71,7.62,7420
16:35:29.522,74695,-0.20,-0.12,0.81,8.42,7421
16:35:29.555,74705,-0.24,-0.11,0.79,8.33,7422
16:35:29.555,74715,-0.06,-0.19,0.85,8.71,7423
16:35:29.557,74725,-0.00,-0.31,0.73,7.97,7424
16:35:29.560,74735,-0.17,-0.39,0.49,6.50,7425
16:35:29.588,74745,-0.29,-0.34,0.48,6.58,7426
16:35:29.642,74755,-0.32,-0.41,0.55,7.54,7427
16:35:29.642,74765,-0.29,-0.49,0.61,8.29,7428
16:35:29.643,74775,-0.25,-0.51,0.64,8.59,7429
16:35:29.644,74785,-0.29,-0.62,0.70,9.79,7430
16:35:29.657,74795,-0.42,-0.79,0.74,11.65,7431
16:35:29.658,74805,-0.46,-0.96,0.45,11.52,7432
16:35:29.660,74815,-0.44,-1.03,0.20,11.34,7433
16:35:29.677,74825,-0.44,-0.82,-0.00,9.32,7434
16:35:29.677,74835,-0.61,-0.52,0.10,8.12,7435
16:35:29.679,74845,-0.78,-0.41,0.24,9.15,7436
16:35:29.679,74855,-0.88,-0.36,0.29,9.98,7437
16:35:29.691,74865,-0.86,-0.35,0.24,9.56,7438
16:35:29.698,74875,-0.57,-0.15,-0.02,5.87,7439
16:35:29.715,74885,-0.57,0.24,-0.48,7.83,7440
16:35:29.719,74895,-0.73,0.50,-0.68,11.15,7441
16:35:29.730,74905,-0.96,0.45,-0.68,12.61,7442
16:35:29.744,74915,-1.01,0.05,-0.58,11.65,7443
16:35:29.749,74925,-0.80,-0.25,-0.48,9.69,7444
16:35:29.759,74935,-0.52,-0.49,-0.19,7.35,7445
16:35:29.774,74945,-0.48,-0.62,-0.16,8.02,7446
16:35:29.780,74955,-1.07,-0.78,-0.20,13.36,7447
16:35:29.798,74965,-1.81,-0.72,0.10,19.54,7448
16:35:29.799,74975,-2.13,-0.73,0.35,22.72,7449
16:35:29.809,74985,-2.13,-0.20,0.16,21.41,7450
16:35:29.824,74995,-1.21,0.14,-0.36,12.72,7451
16:35:29.829,75005,-0.50,-0.68,-0.27,8.90,7452
16:35:29.843,75015,-0.29,-0.83,0.41,9.64,7453
16:35:29.850,75025,-0.17,-1.00,0.54,11.54,7454
16:35:29.864,75035,-0.13,-1.09,0.48,11.93,7455
16:35:29.872,75045,-0.22,-1.05,0.59,12.23,7456
16:35:29.882,75055,-0.48,-0.85,0.49,10.94,7457
16:35:29.889,75065,-0.66,-0.70,0.55,11.10,7458
16:35:29.907,75075,-0.97,-0.56,0.55,12.53,7459
16:35:29.908,75085,-1.10,-0.42,0.48,12.68,7460
16:35:29.943,75095,-1.09,-0.37,0.33,12.00,7461
16:35:29.944,75105,-0.94,-0.55,0.16,10.99,7462
16:35:29.947,75115,-0.75,-0.72,0.10,10.48,7463
16:35:29.950,75125,-0.63,-0.82,0.07,10.31,7464
16:35:29.967,75135,-0.54,-0.93,0.00,10.73,7465
16:35:29.969,75145,-0.49,-1.00,-0.03,11.12,7466
16:35:29.985,75155,-0.48,-1.00,-0.07,11.15,7467
16:35:29.989,75165,-0.57,-0.90,-0.02,10.66,7468
16:35:30.005,75175,-0.63,-0.77,0.04,9.98,7469
16:35:30.013,75185,-0.73,-0.78,0.08,10.73,7470
16:35:30.020,75195,-0.84,-0.65,0.14,10.70,7471
16:35:30.038,75205,-0.96,-0.54,0.17,11.12,7472
16:35:30.040,75215,-0.99,-0.47,0.21,11.17,7473
16:35:30.054,75225,-0.97,-0.40,0.19,10.72,7474
16:35:30.062,75235,-0.95,-0.37,0.19,10.36,7475
16:35:30.068,75245,-0.91,-0.41,0.20,10.15,7476
16:35:30.085,75255,-0.86,-0.50,0.15,10.05,7477
16:35:30.091,75265,-0.78,-0.65,0.12,10.18,7478
16:35:30.129,75275,-0.70,-0.76,0.08,10.37,7479
16:35:30.129,75285,-0.64,-0.85,0.01,10.68,7480
16:35:30.132,75295,-0.63,-0.87,-0.01,10.74,7481
16:35:30.167,75305,-0.66,-0.78,0.00,10.22,7482
16:35:30.167,75315,-0.74,-0.65,0.02,9.83,7483
16:35:30.169,75325,-0.83,-0.56,0.07,10.04,7484
16:35:30.170,75335,-0.93,-0.47,0.10,10.46,7485
16:35:30.172,75345,-0.93,-0.49,0.09,10.55,7486
16:35:30.209,75355,-0.82,-0.60,0.05,10.17,7487
16:35:30.209,75365,-0.77,-0.66,0.04,10.13,7488
16:35:30.215,75375,-0.74,-0.68,0.06,10.11,7489
16:35:30.215,75385,-0.75,-0.66,0.07,10.00,7490
16:35:30.248,75395,-0.77,-0.63,0.08,9.97,7491
16:35:30.248,75405,-0.79,-0.60,0.12,9.97,7492
16:35:30.249,75415,-0.81,-0.58,0.13,10.03,7493
16:35:30.250,75425,-0.82,-0.56,0.11,9.98,7494
16:35:30.289,75435,-0.81,-0.57,0.08,9.94,7495
16:35:30.289,75445,-0.85,-0.56,0.05,10.26,7496
16:35:30.291,75455,-0.87,-0.57,0.04,10.37,7497
16:35:30.293,75465,-0.83,-0.63,0.06,10.47,7498
16:35:30.323,75475,-0.80,-0.65,0.07,10.30,7499
16:35:30.324,75485,-0.73,-0.66,0.01,9.88,7500
16:35:30.324,75495,-0.71,-0.69,-0.01,9.88,7501
16:35:30.331,75505,-0.69,-0.72,0.01,9.98,7502
16:35:30.343,75515,-0.68,-0.77,0.03,10.26,7503
16:35:30.350,75525,-0.76,-0.74,0.05,10.60,7504
16:35:30.364,75535,-0.87,-0.64,0.07,10.79,7505
16:35:30.372,75545,-0.87,-0.60,0.06,10.56,7506
16:35:30.380,75555,-0.78,-0.60,0.04,9.88,7507
16:35:30.389,75565,-0.78,-0.60,0.05,9.88,7508
16:35:30.407,75575,-0.84,-0.59,0.12,10.33,7509
16:35:30.409,75585,-0.89,-0.59,0.13,10.74,7510
16:35:30.418,75595,-0.95,-0.54,0.13,11.07,7511
16:35:30.436,75605,-1.01,-0.48,0.10,11.22,7512
16:35:30.439,75615,-1.06,-0.41,0.04,11.39,7513
16:35:30.458,75625,-1.14,-0.37,-0.03,12.00,7514
16:35:30.459,75635,-1.26,-0.43,-0.11,13.40,7515
16:35:30.473,75645,-1.34,-0.66,-0.10,14.96,7516
16:35:30.480,75655,-1.66,-0.66,-0.11,17.93,7517
16:35:30.490,75665,-1.86,-0.50,-0.05,19.29,7518
16:35:30.499,75675,-1.84,-0.33,-0.34,18.96,7519
16:35:30.511,75685,-1.58,-0.51,-0.40,17.06,7520
16:35:30.522,75695,-1.41,-0.84,-0.10,16.43,7521
16:35:30.529,75705,-1.25,-1.01,0.11,16.07,7522
16:35:30.544,75715,-0.96,-1.08,0.19,14.55,7523
16:35:30.548,75725,-0.64,-1.15,0.41,13.77,7524
16:35:30.559,75735,-0.52,-1.27,0.62,15.09,7525
16:35:30.569,75745,-0.46,-1.37,0.79,16.47,7526
16:35:30.579,75755,-0.44,-1.36,0.94,17.11,7527
16:35:30.591,75765,-0.50,-1.18,0.85,15.41,7528
16:35:30.602,75775,-0.48,-0.93,0.89,13.74,7529
16:35:30.613,75785,-0.25,-0.82,1.13,14.17,7530
16:35:30.622,75795,-0.04,-0.67,1.25,14.23,7531
16:35:30.632,75805,-0.01,-0.44,1.21,12.87,7532
16:35:30.639,75815,-0.17,-0.23,0.96,9.99,7533
16:35:30.650,75825,-0.32,-0.13,0.66,7.41,7534
16:35:30.660,75835,-0.37,-0.38,0.60,7.94,7535
16:35:30.669,75845,-0.33,-0.67,0.54,9.19,7536
16:35:30.681,75855,-0.29,-0.92,0.50,10.89,7537
16:35:30.689,75865,-0.09,-0.92,0.56,10.79,7538
16:35:30.701,75875,0.06,-0.86,0.55,10.28,7539
16:35:30.710,75885,0.15,-0.72,0.56,9.23,7540
16:35:30.718,75895,0.09,-0.54,0.61,8.21,7541
16:35:30.733,75905,-0.01,-0.41,0.67,7.86,7542
16:35:30.739,75915,-0.11,-0.36,0.72,8.15,7543
16:35:30.756,75925,-0.21,-0.20,0.75,8.07,7544
16:35:30.759,75935,-0.29,-0.10,0.78,8.40,7545
16:35:30.770,75945,-0.27,-0.05,0.87,9.11,7546
16:35:30.782,75955,-0.09,-0.07,0.92,9.23,7547
16:35:30.790,75965,-0.03,-0.21,0.72,7.54,7548
16:35:30.800,75975,-0.12,-0.41,0.55,6.94,7549
16:35:30.811,75985,-0.19,-0.37,0.56,6.97,7550
16:35:30.819,75995,-0.24,-0.36,0.67,7.93,7551
16:35:30.830,76005,-0.26,-0.41,0.77,9.09,7552
16:35:30.883,76015,-0.32,-0.33,0.69,8.30,7553
16:35:30.883,76025,-0.38,-0.35,0.66,8.36,7554
16:35:30.883,76035,-0.48,-0.47,0.62,9.16,7555
16:35:30.979,76045,-0.59,-0.59,0.56,10.04,7556
16:35:30.980,76055,-0.61,-0.64,0.49,10.10,7557
16:35:30.983,76065,-0.63,-0.67,0.36,9.85,7558
16:35:31.015,76075,-0.74,-0.71,0.26,10.61,7559
16:35:31.017,76085,-0.86,-0.76,0.28,11.82,7560
16:35:31.019,76095,-0.85,-0.78,0.19,11.73,7561
16:35:31.019,76105,-0.65,-0.75,-0.10,9.97,7562
16:35:31.019,76115,-0.45,-0.45,-0.26,6.89,7563
16:35:31.019,76125,-0.53,-0.02,-0.78,9.39,7564
16:35:31.019,76135,-0.70,0.35,-1.20,14.26,7565
16:35:31.019,76145,-0.90,0.46,-1.27,16.22,7566
16:35:31.019,76155,-1.02,0.29,-0.94,14.17,7567
16:35:31.076,76165,-0.90,0.02,-0.45,10.06,7568
16:35:31.087,76175,-0.82,-0.55,-0.28,10.27,7569
16:35:31.088,76185,-0.52,-0.87,0.03,10.13,7570
16:35:31.091,76195,-0.31,-0.96,0.12,10.15,7571
16:35:31.119,76205,-0.61,-0.87,-0.00,10.67,7572
16:35:31.121,76215,-1.24,-0.71,0.15,14.35,7573
16:35:31.121,76225,-1.91,-0.45,0.36,19.98,7574
16:35:31.121,76235,-2.13,-0.09,0.30,21.48,7575
16:35:31.123,76245,-1.95,0.41,0.17,20.03,7576
16:35:31.124,76255,-1.57,0.52,-0.04,16.50,7577
16:35:31.126,76265,-0.98,-0.30,-0.10,10.31,7578
16:35:31.129,76275,-0.57,-0.72,0.43,10.17,7579
16:35:31.131,76285,-0.36,-0.91,0.27,10.13,7580
16:35:31.132,76295,-0.21,-1.21,0.03,12.32,7581
16:35:31.132,76305,-0.15,-1.24,0.21,12.70,7582
16:35:31.139,76315,-0.53,-1.09,0.22,12.31,7583
16:35:31.151,76325,-0.74,-0.77,0.35,11.27,7584
16:35:31.160,76335,-0.89,-0.55,0.43,11.27,7585
16:35:31.171,76345,-0.99,-0.32,0.42,11.20,7586
16:35:31.182,76355,-1.13,-0.16,0.35,11.91,7587
16:35:31.192,76365,-1.00,-0.31,0.21,10.70,7588
16:35:31.222,76375,-0.80,-0.69,0.15,10.72,7589
16:35:31.224,76385,-0.62,-0.93,0.05,11.24,7590
16:35:31.225,76395,-0.51,-1.07,-0.07,11.88,7591
16:35:31.229,76405,-0.34,-1.12,-0.14,11.80,7592
16:35:31.239,76415,-0.29,-1.12,-0.13,11.63,7593
16:35:31.249,76425,-0.46,-0.95,-0.01,10.59,7594
16:35:31.263,76435,-0.61,-0.80,0.08,10.10,7595
16:35:31.270,76445,-0.79,-0.67,0.14,10.47,7596
16:35:31.286,76455,-0.93,-0.56,0.20,11.01,7597
16:35:31.289,76465,-1.03,-0.46,0.30,11.65,7598
16:35:31.303,76475,-1.08,-0.37,0.35,11.95,7599
16:35:31.309,76485,-1.05,-0.30,0.35,11.47,7600
16:35:31.319,76495,-0.92,-0.35,0.25,10.13,7601
16:35:31.329,76505,-0.80,-0.53,0.18,9.75,7602
16:35:31.340,76515,-0.71,-0.70,0.12,10.06,7603
16:35:31.350,76525,-0.66,-0.80,0.12,10.42,7604
16:35:31.366,76535,-0.61,-0.86,0.08,10.57,7605
16:35:31.369,76545,-0.60,-0.84,0.08,10.36,7606
16:35:31.380,76555,-0.67,-0.76,0.11,10.18,7607
16:35:31.395,76565,-0.71,-0.70,0.11,10.07,7608
16:35:31.398,76575,-0.75,-0.62,0.11,9.82,7609
16:35:31.414,76585,-0.82,-0.59,0.12,10.13,7610
16:35:31.425,76595,-0.84,-0.58,0.12,10.28,7611
16:35:31.434,76605,-0.83,-0.58,0.11,10.18,7612
16:35:31.445,76615,-0.79,-0.63,0.10,10.14,7613
16:35:31.450,76625,-0.74,-0.69,0.11,10.18,7614
16:35:31.459,76635,-0.71,-0.73,0.10,10.22,7615
16:35:31.469,76645,-0.71,-0.72,0.08,10.16,7616
16:35:31.482,76655,-0.72,-0.70,0.06,10.06,7617
16:35:31.493,76665,-0.76,-0.62,0.06,9.84,7618
16:35:31.501,76675,-0.82,-0.56,0.08,9.96,7619
16:35:31.511,76685,-0.91,-0.50,0.11,10.48,7620
16:35:31.520,76695,-0.96,-0.47,0.12,10.78,7621
16:35:31.532,76705,-0.95,-0.49,0.11,10.73,7622
16:35:31.584,76715,-0.87,-0.55,0.04,10.25,7623
16:35:31.584,76725,-0.85,-0.56,-0.01,10.19,7624
16:35:31.585,76735,-0.86,-0.50,-0.07,9.97,7625
16:35:31.586,76745,-0.83,-0.58,-0.07,10.14,7626
16:35:31.586,76755,-0.78,-0.68,-0.05,10.34,7627
16:35:31.623,76765,-0.71,-0.71,-0.01,10.05,7628
16:35:31.624,76775,-0.68,-0.71,0.01,9.84,7629
16:35:31.625,76785,-0.70,-0.70,0.07,9.98,7630
16:35:31.626,76795,-0.70,-0.69,0.14,9.89,7631
16:35:31.629,76805,-0.69,-0.66,0.15,9.67,7632
16:35:31.657,76815,-0.72,-0.64,0.16,9.77,7633
16:35:31.657,76825,-0.81,-0.59,0.18,10.20,7634
16:35:31.659,76835,-0.88,-0.59,0.21,10.77,7635
16:35:31.697,76845,-0.90,-0.61,0.17,11.03,7636
16:35:31.699,76855,-0.95,-0.58,0.10,11.17,7637
16:35:31.700,76865,-1.01,-0.57,0.02,11.56,7638
16:35:31.701,76875,-1.05,-0.73,-0.03,12.85,7639
16:35:31.737,76885,-1.23,-0.82,-0.02,14.79,7640
16:35:31.739,76895,-1.44,-0.66,-0.07,15.90,7641
16:35:31.741,76905,-1.44,-0.51,-0.21,15.39,7642
16:35:31.742,76915,-1.39,-0.44,-0.23,14.77,7643
16:35:31.766,76925,-1.45,-0.55,-0.31,15.79,7644
16:35:31.766,76935,-1.65,-0.60,-0.23,17.66,7645
16:35:31.769,76945,-1.74,-0.57,-0.30,18.54,7646
16:35:31.783,76955,-1.53,-0.57,-0.33,16.70,7647
16:35:31.790,76965,-1.16,-0.81,-0.19,14.28,7648
16:35:31.804,76975,-0.90,-1.03,0.02,13.69,7649
16:35:31.809,76985,-0.73,-1.20,0.22,14.20,7650
16:35:31.819,76995,-0.64,-1.25,0.60,15.27,7651
16:35:31.834,77005,-0.73,-1.20,0.77,16.07,7652
16:35:31.843,77015,-0.72,-1.13,0.88,16.03,7653
16:35:31.852,77025,-0.71,-0.96,0.86,14.66,7654
16:35:31.859,77035,-0.58,-0.82,0.81,12.96,7655
16:35:31.868,77045,-0.30,-0.69,1.02,12.69,7656
16:35:31.885,77055,-0.05,-0.66,1.24,14.06,7657
16:35:31.890,77065,-0.07,-0.52,1.18,12.96,7658
16:35:31.899,77075,-0.32,-0.37,0.86,9.87,7659
16:35:31.909,77085,-0.58,-0.34,0.67,9.47,7660
16:35:31.920,77095,-0.52,-0.51,0.72,10.19,7661
16:35:31.937,77105,-0.39,-0.71,0.68,10.58,7662
16:35:31.938,77115,-0.28,-0.88,0.65,11.35,7663
16:35:31.952,77125,-0.09,-0.85,0.72,11.13,7664
16:35:31.962,77135,0.09,-0.72,0.72,10.20,7665
16:35:31.971,77145,0.12,-0.58,0.63,8.66,7666
16:35:31.979,77155,-0.01,-0.43,0.65,7.78,7667
16:35:31.989,77165,-0.13,-0.36,0.66,7.60,7668
16:35:32.002,77175,-0.22,-0.30,0.74,8.29,7669
16:35:32.010,77185,-0.28,-0.19,0.78,8.49,7670
16:35:32.020,77195,-0.19,-0.20,0.82,8.60,7671
16:35:32.032,77205,-0.00,-0.24,0.78,8.16,7672
16:35:32.039,77215,0.07,-0.33,0.68,7.60,7673
16:35:32.049,77225,0.08,-0.38,0.64,7.53,7674
16:35:32.059,77235,-0.06,-0.37,0.62,7.26,7675
16:35:32.069,77245,-0.17,-0.37,0.65,7.69,7676
16:35:32.085,77255,-0.22,-0.41,0.68,8.19,7677
16:35:32.091,77265,-0.20,-0.44,0.65,8.06,7678
16:35:32.106,77275,-0.21,-0.37,0.58,7.17,7679
16:35:32.107,77285,-0.25,-0.43,0.68,8.39,7680
16:35:32.121,77295,-0.37,-0.60,0.70,9.92,7681
16:35:32.132,77305,-0.54,-0.71,0.62,10.86,7682
16:35:32.139,77315,-0.61,-0.74,0.50,10.85,7683
16:35:32.151,77325,-0.61,-0.66,0.44,9.97,7684
16:35:32.159,77335,-0.69,-0.53,0.32,9.32,7685
16:35:32.175,77345,-0.74,-0.56,0.33,9.88,7686
16:35:32.179,77355,-0.79,-0.64,0.49,11.29,7687
16:35:32.195,77365,-0.81,-0.62,0.48,11.25,7688
16:35:32.199,77375,-0.90,-0.32,-0.03,9.55,7689
16:35:32.211,77385,-0.91,0.06,-0.39,9.90,7690
16:35:32.224,77395,-0.97,0.38,-0.86,13.55,7691
16:35:32.229,77405,-1.00,0.56,-1.24,16.91,7692
16:35:32.239,77415,-0.83,0.30,-1.71,19.24,7693
16:35:32.259,77425,-0.68,-0.02,-1.41,15.69,7694
16:35:32.259,77435,-0.48,-0.30,-0.72,9.14,7695
16:35:32.272,77445,-0.53,-0.75,-0.21,9.39,7696
16:35:32.285,77455,-0.41,-1.02,-0.01,10.98,7697
16:35:32.368,77465,-0.10,-1.01,0.05,10.22,7698
16:35:32.369,77475,-0.46,-0.91,0.03,10.16,7699
16:35:32.411,77485,-1.19,-0.80,0.15,14.41,7700
16:35:32.411,77495,-1.88,-0.74,0.35,20.47,7701
16:35:32.452,77505,-2.13,-0.23,0.32,21.60,7702
16:35:32.453,77515,-2.00,0.24,0.03,20.19,7703
16:35:32.492,77525,-1.70,0.73,-0.08,18.51,7704
16:35:32.493,77535,-1.13,0.11,-0.05,11.33,7705
16:35:32.533,77545,-0.66,-1.10,-0.02,12.85,7706
16:35:32.534,77555,-0.53,-0.98,0.32,11.62,7707
16:35:32.537,77565,-0.46,-1.19,0.08,12.79,7708
16:35:32.537,77575,-0.22,-1.29,0.21,13.26,7709
16:35:32.537,77585,-0.18,-1.40,0.22,14.24,7710
16:35:32.537,77595,-0.51,-0.97,0.44,11.81,7711
16:35:32.537,77605,-0.73,-0.62,0.59,11.21,7712
16:35:32.537,77615,-0.87,-0.41,0.59,11.30,7713
16:35:32.537,77625,-1.14,-0.27,0.51,12.76,7714
16:35:32.537,77635,-1.12,-0.27,0.37,12.12,7715
16:35:32.537,77645,-0.84,-0.67,0.19,10.92,7716
16:35:32.537,77655,-0.60,-0.94,0.08,11.13,7717
16:35:32.538,77665,-0.44,-1.05,-0.05,11.40,7718
16:35:32.539,77675,-0.39,-1.04,-0.13,11.20,7719
16:35:32.560,77685,-0.51,-0.92,-0.11,10.54,7720
16:35:32.560,77695,-0.68,-0.79,0.05,10.48,7721
16:35:32.563,77705,-0.80,-0.72,0.11,10.82,7722
16:35:32.567,77715,-0.86,-0.67,0.18,11.02,7723
16:35:32.567,77725,-0.94,-0.59,0.22,11.28,7724
16:35:32.567,77735,-0.95,-0.54,0.22,11.18,7725
16:35:32.570,77745,-0.91,-0.51,0.22,10.65,7726
16:35:32.583,77755,-0.83,-0.55,0.20,10.19,7727
16:35:32.591,77765,-0.76,-0.64,0.20,10.11,7728
16:35:32.602,77775,-0.72,-0.71,0.13,10.25,7729
16:35:32.611,77785,-0.69,-0.80,0.09,10.64,7730
16:35:32.621,77795,-0.66,-0.87,0.01,10.92,7731
16:35:32.635,77805,-0.62,-0.87,-0.02,10.71,7732
16:35:32.639,77815,-0.63,-0.84,-0.01,10.52,7733
16:35:32.650,77825,-0.69,-0.75,0.00,10.20,7734
16:35:32.660,77835,-0.80,-0.62,0.01,10.12,7735
16:35:32.670,77845,-0.88,-0.52,0.02,10.21,7736
16:35:32.683,77855,-0.96,-0.46,0.05,10.64,7737
16:35:32.690,77865,-0.90,-0.53,0.01,10.49,7738
16:35:32.702,77875,-0.82,-0.61,-0.04,10.18,7739
16:35:32.712,77885,-0.76,-0.68,-0.08,10.26,7740
16:35:32.721,77895,-0.73,-0.73,-0.08,10.38,7741
16:35:32.730,77905,-0.74,-0.73,-0.07,10.43,7742
16:35:32.740,77915,-0.75,-0.70,-0.06,10.27,7743
16:35:32.750,77925,-0.79,-0.66,-0.09,10.35,7744
16:35:32.761,77935,-0.81,-0.63,-0.11,10.30,7745
16:35:32.770,77945,-0.86,-0.56,-0.08,10.33,7746
16:35:32.784,77955,-0.95,-0.47,-0.06,10.61,7747
16:35:32.790,77965,-1.02,-0.43,-0.06,11.08,7748
16:35:32.799,77975,-0.98,-0.46,-0.08,10.89,7749
16:35:32.815,77985,-0.92,-0.53,-0.11,10.64,7750
16:35:32.820,77995,-0.88,-0.58,-0.17,10.67,7751
16:35:32.837,78005,-0.87,-0.56,-0.18,10.53,7752
16:35:32.838,78015,-0.88,-0.52,-0.15,10.32,7753
16:35:32.856,78025,-0.82,-0.56,-0.14,10.04,7754
16:35:32.860,78035,-0.78,-0.60,-0.08,9.89,7755
16:35:32.876,78045,-0.75,-0.63,-0.05,9.78,7756
16:35:32.880,78055,-0.73,-0.67,-0.07,9.93,7757
16:35:32.894,78065,-0.75,-0.65,-0.04,9.97,7758
16:35:32.902,78075,-0.78,-0.63,-0.01,10.04,7759
16:35:32.911,78085,-0.83,-0.62,0.02,10.36,7760
16:35:32.926,78095,-0.90,-0.58,0.07,10.71,7761
16:35:32.930,78105,-0.92,-0.52,0.12,10.65,7762
16:35:32.945,78115,-0.94,-0.50,0.13,10.71,7763
16:35:32.949,78125,-0.88,-0.56,0.10,10.45,7764
16:35:32.965,78135,-0.90,-0.58,0.07,10.76,7765
16:35:32.971,78145,-0.98,-0.56,0.05,11.36,7766
16:35:32.979,78155,-1.08,-0.55,-0.02,12.14,7767
16:35:32.989,78165,-1.16,-0.68,-0.11,13.49,7768
16:35:32.998,78175,-1.34,-0.81,-0.11,15.70,7769
16:35:33.011,78185,-1.61,-0.68,-0.15,17.59,7770
16:35:33.071,78195,-1.75,-0.50,-0.15,18.27,7771
16:35:33.072,78205,-1.73,-0.39,-0.34,18.03,7772
16:35:33.074,78215,-1.67,-0.49,-0.42,17.88,7773
16:35:33.112,78225,-1.59,-0.78,-0.19,17.81,7774
16:35:33.112,78235,-1.53,-1.03,-0.04,18.51,7775
16:35:33.113,78245,-1.16,-1.14,0.05,16.27,7776
16:35:33.116,78255,-0.73,-1.25,0.23,14.62,7777
16:35:33.151,78265,-0.50,-1.31,0.43,14.70,7778
16:35:33.154,78275,-0.33,-1.41,0.85,16.80,7779
16:35:33.154,78285,-0.29,-1.42,0.99,17.56,7780
16:35:33.155,78295,-0.40,-1.33,0.94,16.75,7781
16:35:33.194,78305,-0.48,-1.16,0.93,15.66,7782
16:35:33.194,78315,-0.33,-0.88,1.16,14.92,7783
16:35:33.194,78325,-0.13,-0.68,1.37,15.34,7784
16:35:33.195,78335,-0.12,-0.48,1.30,13.85,7785
16:35:33.198,78345,-0.11,-0.27,1.13,11.68,7786
16:35:33.198,78355,-0.17,-0.12,0.91,9.30,7787
16:35:33.198,78365,-0.28,-0.15,0.62,6.92,7788
16:35:33.200,78375,-0.33,-0.47,0.47,7.45,7789
16:35:33.236,78385,-0.32,-0.82,0.37,9.60,7790
16:35:33.236,78395,-0.15,-0.86,0.63,10.73,7791
16:35:33.237,78405,-0.00,-0.82,0.68,10.71,7792
16:35:33.238,78415,0.10,-0.68,0.61,9.14,7793
16:35:33.250,78425,0.14,-0.50,0.60,7.94,7794
16:35:33.262,78435,0.09,-0.35,0.61,7.10,7795
16:35:33.269,78445,-0.03,-0.28,0.67,7.25,7796
16:35:33.281,78455,-0.13,-0.21,0.66,7.03,7797
16:35:33.290,78465,-0.21,-0.15,0.73,7.72,7798
16:35:33.307,78475,-0.23,-0.12,0.74,7.90,7799
16:35:33.309,78485,-0.16,-0.23,0.75,8.07,7800
16:35:33.321,78495,-0.05,-0.37,0.68,7.77,7801
16:35:33.330,78505,-0.08,-0.40,0.51,6.52,7802
16:35:33.339,78515,-0.23,-0.36,0.47,6.33,7803
16:35:33.353,78525,-0.35,-0.35,0.52,7.24,7804
16:35:33.360,78535,-0.39,-0.36,0.58,7.87,7805
16:35:33.372,78545,-0.43,-0.37,0.61,8.35,7806
16:35:33.384,78555,-0.42,-0.33,0.61,8.15,7807
16:35:33.391,78565,-0.48,-0.48,0.58,8.87,7808
16:35:33.400,78575,-0.55,-0.72,0.58,10.77,7809
16:35:33.410,78585,-0.76,-0.89,0.42,12.46,7810
16:35:33.423,78595,-0.75,-0.87,0.32,11.92,7811
16:35:33.431,78605,-0.70,-0.72,0.19,10.19,7812
16:35:33.442,78615,-0.74,-0.62,0.13,9.70,7813
16:35:33.450,78625,-0.82,-0.56,0.13,10.06,7814
16:35:33.459,78635,-0.76,-0.41,0.07,8.73,7815
16:35:33.477,78645,-0.70,-0.14,-0.13,7.23,7816
16:35:33.478,78655,-0.81,0.35,-0.48,10.01,7817
16:35:33.493,78665,-1.00,0.45,-1.05,15.24,7818
16:35:33.502,78675,-1.08,0.73,-1.20,17.70,7819
16:35:33.513,78685,-1.02,0.37,-1.12,15.59,7820
16:35:33.520,78695,-0.72,-0.05,-0.67,9.82,7821
16:35:33.530,78705,-0.56,-0.51,-0.35,8.35,7822
16:35:33.541,78715,-0.33,-0.69,0.04,7.67,7823
16:35:33.550,78725,-0.27,-0.81,0.12,8.65,7824
16:35:33.559,78735,-0.58,-0.85,0.12,10.40,7825
16:35:33.569,78745,-1.03,-0.90,0.24,13.88,7826
16:35:33.579,78755,-1.58,-0.92,0.29,18.53,7827
16:35:33.596,78765,-1.95,-0.60,0.21,20.54,7828
16:35:33.599,78775,-1.91,-0.09,0.08,19.13,7829
16:35:33.613,78785,-1.75,0.31,-0.21,17.93,7830
16:35:33.639,78795,-1.49,0.21,-0.10,15.05,7831
16:35:33.650,78805,-1.01,-0.72,-0.11,12.43,7832
16:35:33.653,78815,-0.64,-1.02,0.16,12.15,7833
16:35:33.653,78825,-0.45,-1.04,0.10,11.32,7834
16:35:33.662,78835,-0.32,-0.85,0.18,9.21,7835
16:35:33.670,78845,-0.58,-0.67,0.15,8.96,7836
16:35:33.681,78855,-0.60,-0.79,0.30,10.41,7837
16:35:33.692,78865,-0.79,-0.84,0.30,11.88,7838
16:35:33.700,78875,-0.84,-0.68,0.39,11.46,7839
16:35:33.709,78885,-0.92,-0.51,0.34,11.10,7840
16:35:33.719,78895,-0.97,-0.31,0.30,10.57,7841
16:35:33.731,78905,-0.91,-0.44,0.27,10.51,7842
16:35:33.741,78915,-0.80,-0.69,0.15,10.70,7843
16:35:33.749,78925,-0.71,-0.85,0.08,11.11,7844
16:35:33.790,78935,-0.61,-0.89,0.05,10.77,7845
16:35:33.790,78945,-0.55,-0.88,0.01,10.42,7846
16:35:33.791,78955,-0.55,-0.83,0.01,9.99,7847
16:35:33.907,78965,-0.66,-0.77,0.09,10.18,7848
16:35:33.908,78975,-0.74,-0.71,0.14,10.32,7849
16:35:33.908,78985,-0.82,-0.65,0.13,10.54,7850
16:35:33.909,78995,-0.87,-0.62,0.15,10.78,7851
16:35:33.949,79005,-0.91,-0.57,0.15,10.84,7852
16:35:33.949,79015,-0.93,-0.53,0.14,10.84,7853
16:35:33.953,79025,-0.92,-0.52,0.12,10.63,7854
16:35:33.953,79035,-0.86,-0.54,0.08,10.18,7855
16:35:33.953,79045,-0.82,-0.57,0.03,9.96,7856
16:35:33.953,79055,-0.80,-0.62,-0.00,10.14,7857
16:35:33.953,79065,-0.77,-0.68,-0.00,10.31,7858
16:35:33.953,79075,-0.74,-0.72,-0.01,10.37,7859
16:35:33.953,79085,-0.70,-0.74,0.00,10.23,7860
16:35:33.953,79095,-0.70,-0.69,0.02,9.84,7861
16:35:33.955,79105,-0.73,-0.66,0.03,9.84,7862
16:35:33.956,79115,-0.75,-0.66,0.05,10.01,7863
16:35:33.991,79125,-0.81,-0.64,0.05,10.31,7864
16:35:33.992,79135,-0.84,-0.61,0.07,10.37,7865
16:35:33.997,79145,-0.82,-0.61,0.08,10.22,7866
16:35:33.997,79155,-0.79,-0.63,0.07,10.10,7867
16:35:33.997,79165,-0.77,-0.65,0.07,10.12,7868
16:35:34.018,79175,-0.79,-0.67,0.05,10.33,7869
16:35:34.023,79185,-0.78,-0.65,0.02,10.19,7870
16:35:34.024,79195,-0.79,-0.67,0.02,10.33,7871
16:35:34.032,79205,-0.79,-0.66,0.03,10.29,7872
16:35:34.044,79215,-0.77,-0.67,0.04,10.18,7873
16:35:34.049,79225,-0.75,-0.68,0.02,10.14,7874
16:35:34.067,79235,-0.75,-0.69,0.01,10.18,7875
16:35:34.070,79245,-0.75,-0.66,-0.00,9.99,7876
16:35:34.083,79255,-0.79,-0.59,0.00,9.88,7877
16:35:34.093,79265,-0.89,-0.50,0.01,10.23,7878
16:35:34.103,79275,-0.93,-0.44,-0.00,10.32,7879
16:35:34.112,79285,-0.90,-0.47,0.02,10.14,7880
16:35:34.123,79295,-0.85,-0.52,0.02,10.01,7881
16:35:34.132,79305,-0.80,-0.59,0.01,9.94,7882
16:35:34.142,79315,-0.78,-0.64,-0.01,10.08,7883
16:35:34.156,79325,-0.75,-0.68,-0.02,10.14,7884
16:35:34.159,79335,-0.70,-0.72,-0.01,10.05,7885
16:35:34.170,79345,-0.71,-0.74,-0.02,10.21,7886
16:35:34.189,79355,-0.73,-0.71,-0.02,10.18,7887
16:35:34.189,79365,-0.78,-0.65,-0.01,10.21,7888
16:35:34.200,79375,-0.89,-0.57,0.03,10.60,7889
16:35:34.217,79385,-1.00,-0.49,0.11,11.14,7890
16:35:34.218,79395,-1.05,-0.49,0.16,11.73,7891
16:35:34.229,79405,-1.04,-0.56,0.14,11.88,7892
16:35:34.245,79415,-1.01,-0.72,0.06,12.43,7893
16:35:34.249,79425,-1.08,-0.84,0.11,13.75,7894
16:35:34.265,79435,-1.31,-0.72,0.09,15.02,7895
16:35:34.271,79445,-1.43,-0.53,-0.12,15.30,7896
16:35:34.279,79455,-1.47,-0.40,-0.16,15.28,7897
16:35:34.297,79465,-1.59,-0.41,-0.31,16.71,7898
16:35:34.301,79475,-1.67,-0.45,-0.35,17.66,7899
16:35:34.311,79485,-1.67,-0.53,-0.15,17.57,7900
16:35:34.319,79495,-1.65,-0.62,-0.07,17.63,7901
16:35:34.330,79505,-1.33,-0.80,-0.06,15.49,7902
16:35:34.346,79515,-0.95,-0.97,0.08,13.60,7903
16:35:34.348,79525,-0.66,-1.14,0.22,13.30,7904
16:35:34.362,79535,-0.47,-1.31,0.53,14.92,7905
16:35:34.372,79545,-0.38,-1.41,0.81,16.65,7906
16:35:34.383,79555,-0.42,-1.43,0.86,17.14,7907
16:35:34.390,79565,-0.50,-1.30,0.78,15.98,7908
16:35:34.400,79575,-0.44,-0.98,0.82,13.56,7909
16:35:34.416,79585,-0.34,-0.78,1.07,13.67,7910
16:35:34.421,79595,-0.18,-0.65,1.33,14.86,7911
16:35:34.431,79605,-0.20,-0.48,1.25,13.57,7912
16:35:34.441,79615,-0.30,-0.29,1.01,10.94,7913
16:35:34.451,79625,-0.46,-0.20,0.69,8.59,7914
16:35:34.460,79635,-0.45,-0.45,0.61,8.79,7915
16:35:34.470,79645,-0.41,-0.70,0.54,9.76,7916
16:35:34.480,79655,-0.33,-0.90,0.54,10.97,7917
16:35:34.490,79665,-0.11,-0.85,0.62,10.56,7918
16:35:34.500,79675,0.03,-0.75,0.63,9.79,7919
16:35:34.509,79685,0.04,-0.61,0.59,8.49,7920
16:35:34.519,79695,-0.01,-0.49,0.59,7.67,7921
16:35:34.528,79705,-0.13,-0.38,0.62,7.32,7922
16:35:34.539,79715,-0.20,-0.31,0.65,7.49,7923
16:35:34.579,79725,-0.23,-0.28,0.76,8.41,7924
16:35:34.580,79735,-0.22,-0.19,0.76,8.10,7925
16:35:34.582,79745,-0.12,-0.23,0.72,7.68,7926
16:35:34.582,79755,0.02,-0.36,0.73,8.11,7927
16:35:34.620,79765,0.05,-0.43,0.61,7.48,7928
16:35:34.621,79775,-0.09,-0.37,0.51,6.39,7929
16:35:34.623,79785,-0.23,-0.33,0.54,6.72,7930
16:35:34.624,79795,-0.34,-0.33,0.61,7.75,7931
16:35:34.661,79805,-0.39,-0.33,0.66,8.36,7932
16:35:34.661,79815,-0.44,-0.32,0.67,8.68,7933
16:35:34.663,79825,-0.43,-0.30,0.64,8.25,7934
16:35:34.666,79835,-0.48,-0.47,0.59,9.00,7935
16:35:34.702,79845,-0.59,-0.70,0.50,10.37,7936
16:35:34.702,79855,-0.69,-0.78,0.36,10.97,7937
16:35:34.703,79865,-0.66,-0.77,0.24,10.41,7938
16:35:34.705,79875,-0.65,-0.73,0.26,10.08,7939
16:35:34.744,79885,-0.73,-0.73,0.31,10.84,7940
16:35:34.745,79895,-0.85,-0.78,0.31,11.98,7941
16:35:34.747,79905,-0.81,-0.62,0.11,10.24,7942
16:35:34.750,79915,-0.64,-0.22,-0.32,7.52,7943
16:35:34.750,79925,-0.66,0.32,-0.57,9.34,7944
16:35:34.773,79935,-0.94,0.61,-1.00,15.04,7945
16:35:34.773,79945,-1.09,0.69,-1.21,17.69,7946
16:35:34.778,79955,-1.04,0.29,-1.23,16.34,7947
16:35:34.790,79965,-0.93,-0.23,-0.97,13.63,7948
16:35:34.799,79975,-0.51,-0.60,-0.34,8.54,7949
16:35:34.809,79985,-0.34,-0.77,-0.18,8.62,7950
16:35:34.819,79995,-0.37,-0.92,-0.03,9.97,7951
16:35:34.831,80005,-0.67,-0.96,-0.01,11.71,7952
16:35:34.841,80015,-1.52,-0.77,0.20,17.16,7953
16:35:34.852,80025,-2.13,-0.47,0.36,22.06,7954
16:35:34.869,80035,-2.13,0.00,0.22,21.36,7955
16:35:34.870,80045,-1.76,0.49,0.03,18.33,7956
16:35:34.879,80055,-1.12,0.08,-0.00,11.20,7957
16:35:34.894,80065,-0.62,-0.70,0.22,9.60,7958
16:35:34.900,80075,-0.32,-0.80,0.61,10.55,7959
16:35:34.909,80085,-0.08,-0.95,0.33,10.13,7960
16:35:34.924,80095,-0.04,-1.14,0.09,11.44,7961
16:35:34.928,80105,-0.12,-1.18,0.26,12.11,7962
16:35:34.947,80115,-0.57,-0.98,0.40,12.04,7963
16:35:34.948,80125,-0.94,-0.79,0.53,13.38,7964
16:35:34.970,80135,-1.09,-0.54,0.57,13.41,7965
16:35:34.970,80145,-1.11,-0.31,0.46,12.46,7966
16:35:34.987,80155,-1.04,-0.16,0.33,11.01,7967
16:35:34.987,80165,-0.85,-0.44,0.19,9.73,7968
16:35:35.004,80175,-0.73,-0.70,0.13,10.20,7969
16:35:35.010,80185,-0.64,-0.83,0.04,10.48,7970
16:35:35.026,80195,-0.55,-0.98,0.07,11.26,7971
16:35:35.027,80205,-0.46,-1.08,0.10,11.74,7972
16:35:35.064,80215,-0.44,-1.04,0.08,11.35,7973
16:35:35.065,80225,-0.52,-0.94,0.17,10.92,7974
16:35:35.066,80235,-0.61,-0.86,0.19,10.74,7975
16:35:35.069,80245,-0.76,-0.74,0.19,10.74,7976
16:35:35.085,80255,-0.88,-0.64,0.23,11.12,7977
16:35:35.090,80265,-0.92,-0.58,0.24,11.17,7978
16:35:35.100,80275,-0.88,-0.56,0.23,10.65,7979
16:35:35.122,80285,-0.77,-0.63,0.20,10.16,7980
16:35:35.124,80295,-0.71,-0.72,0.13,10.25,7981
16:35:35.142,80305,-0.66,-0.82,0.09,10.57,7982
16:35:35.168,80315,-0.63,-0.86,0.04,10.69,7983
16:35:35.168,80325,-0.64,-0.83,0.01,10.52,7984
16:35:35.171,80335,-0.68,-0.75,0.07,10.15,7985
16:35:35.181,80345,-0.74,-0.67,0.10,9.99,7986
16:35:35.196,80355,-0.80,-0.60,0.10,10.03,7987
16:35:35.200,80365,-0.83,-0.56,0.11,10.11,7988
16:35:35.238,80375,-0.83,-0.59,0.09,10.24,7989
16:35:35.238,80385,-0.78,-0.66,0.03,10.21,7990
16:35:35.238,80395,-0.73,-0.73,-0.01,10.32,7991
16:35:35.241,80405,-0.69,-0.80,-0.05,10.55,7992
16:35:35.241,80415,-0.65,-0.84,-0.08,10.64,7993
16:35:35.278,80425,-0.66,-0.79,-0.07,10.37,7994
16:35:35.278,80435,-0.71,-0.69,-0.03,9.94,7995
16:35:35.278,80445,-0.79,-0.58,-0.00,9.76,7996
16:35:35.281,80455,-0.86,-0.48,0.04,9.84,7997
16:35:35.312,80465,-0.91,-0.38,0.10,9.91,7998
16:35:35.313,80475,-0.99,-0.33,0.13,10.54,7999
16:35:35.313,80485,-1.10,-0.27,0.13,11.36,8000
16:35:35.346,80495,-1.19,-0.26,0.10,12.25,8001
16:35:35.346,80505,-1.02,-0.41,0.02,11.02,8002
16:35:35.346,80515,-0.83,-0.60,-0.13,10.33,8003
16:35:35.350,80525,-0.75,-0.64,-0.15,9.99,8004
16:35:35.387,80535,-0.75,-0.71,-0.31,10.82,8005
16:35:35.387,80545,-0.72,-0.67,-0.16,10.01,8006
16:35:35.387,80555,-0.84,-0.61,-0.05,10.36,8007
16:35:35.388,80565,-0.81,-0.56,0.04,9.86,8008
16:35:35.427,80575,-0.82,-0.57,0.05,10.03,8009
16:35:35.428,80585,-0.77,-0.60,0.07,9.81,8010
16:35:35.428,80595,-0.72,-0.69,0.08,10.00,8011
16:35:35.430,80605,-0.73,-0.70,0.06,10.13,8012
16:35:35.442,80615,-0.70,-0.74,0.03,10.22,8013
16:35:35.453,80625,-0.82,-0.72,0.04,10.90,8014
16:35:35.462,80635,-0.94,-0.60,0.11,11.18,8015
16:35:35.470,80645,-0.99,-0.56,0.12,11.43,8016
16:35:35.479,80655,-0.98,-0.52,0.10,11.10,8017
16:35:35.489,80665,-0.97,-0.49,0.05,10.92,8018
16:35:35.501,80675,-1.04,-0.45,-0.02,11.37,8019
16:35:35.510,80685,-1.17,-0.42,-0.12,12.51,8020
16:35:35.519,80695,-1.28,-0.42,-0.21,13.64,8021
16:35:35.534,80705,-1.39,-0.57,-0.23,15.15,8022
16:35:35.542,80715,-1.64,-0.67,-0.26,17.87,8023
16:35:35.554,80725,-1.79,-0.54,-0.34,19.04,8024
16:35:35.560,80735,-1.82,-0.40,-0.33,18.86,8025
16:35:35.574,80745,-1.63,-0.60,-0.39,17.80,8026
16:35:35.582,80755,-1.41,-0.93,-0.09,16.92,8027
16:35:35.592,80765,-1.33,-1.16,0.14,17.69,8028
16:35:35.601,80775,-1.07,-1.11,0.21,15.58,8029
16:35:35.611,80785,-0.68,-1.05,0.30,12.85,8030
16:35:35.622,80795,-0.48,-1.13,0.70,14.14,8031
16:35:35.629,80805,-0.25,-1.28,1.24,18.00,8032
16:35:35.639,80815,-0.37,-1.39,0.99,17.44,8033
16:35:35.650,80825,-0.41,-1.44,1.01,18.04,8034
16:35:35.665,80835,-0.38,-1.32,1.05,17.31,8035
16:35:35.670,80845,-0.19,-1.00,1.20,15.74,8036
16:35:35.688,80855,-0.04,-0.74,1.28,14.78,8037
16:35:35.689,80865,0.01,-0.53,1.18,12.95,8038
16:35:35.708,80875,-0.03,-0.31,0.96,10.13,8039
16:35:35.709,80885,-0.14,-0.21,0.72,7.59,8040
16:35:35.719,80895,-0.31,-0.37,0.52,7.13,8041
16:35:35.730,80905,-0.45,-0.68,0.34,8.88,8042
16:35:35.739,80915,-0.29,-0.81,0.52,10.07,8043
16:35:35.749,80925,-0.08,-0.90,0.60,10.82,8044
16:35:35.760,80935,0.07,-0.82,0.58,10.06,8045
16:35:35.779,80945,0.11,-0.61,0.58,8.44,8046
16:35:35.779,80955,0.05,-0.48,0.62,7.86,8047
16:35:35.792,80965,-0.00,-0.37,0.69,7.78,8048
16:35:35.803,80975,-0.09,-0.28,0.70,7.55,8049
16:35:35.818,80985,-0.19,-0.19,0.67,7.24,8050
16:35:35.819,80995,-0.23,-0.15,0.79,8.40,8051
16:35:35.829,81005,-0.23,-0.14,0.81,8.54,8052
16:35:35.839,81015,-0.11,-0.28,0.78,8.38,8053
16:35:35.860,81025,-0.09,-0.38,0.52,6.46,8054
16:35:35.862,81035,-0.20,-0.39,0.39,5.87,8055
16:35:35.869,81045,-0.30,-0.41,0.47,6.96,8056
16:35:35.881,81055,-0.37,-0.42,0.58,8.08,8057
16:35:35.898,81065,-0.43,-0.40,0.64,8.67,8058
16:35:35.899,81075,-0.38,-0.40,0.63,8.40,8059
16:35:35.911,81085,-0.34,-0.46,0.51,7.71,8060
16:35:35.919,81095,-0.38,-0.67,0.50,9.21,8061
16:35:35.929,81105,-0.56,-0.78,0.42,10.47,8062
16:35:35.939,81115,-0.69,-0.85,0.38,11.60,8063
16:35:35.951,81125,-0.68,-0.73,0.34,10.55,8064
16:35:35.991,81135,-0.63,-0.61,0.23,9.08,8065
16:35:35.993,81145,-0.74,-0.56,0.13,9.37,8066
16:35:35.994,81155,-0.80,-0.66,0.13,10.47,8067
16:35:35.995,81165,-0.69,-0.69,0.20,10.02,8068
16:35:36.033,81175,-0.65,-0.57,-0.20,8.87,8069
16:35:36.034,81185,-0.57,-0.25,-0.64,8.93,8070
16:35:36.036,81195,-0.62,0.11,-1.02,11.98,8071
16:35:36.066,81205,-0.93,0.43,-1.11,15.13,8072
16:35:36.067,81215,-1.03,0.46,-0.98,14.90,8073
16:35:36.067,81225,-0.98,0.20,-0.74,12.42,8074
16:35:36.068,81235,-0.77,-0.11,-0.51,9.35,8075
16:35:36.070,81245,-0.51,-0.41,-0.11,6.66,8076
16:35:36.099,81255,-0.41,-0.66,-0.10,7.88,8077
16:35:36.101,81265,-0.29,-0.84,-0.10,8.89,8078
16:35:36.103,81275,-0.43,-0.60,0.26,7.83,8079
16:35:36.144,81285,-0.96,-0.92,0.18,13.39,8080
16:35:36.144,81295,-1.39,-0.99,0.18,17.13,8081
16:35:36.145,81305,-1.66,-0.90,0.07,18.93,8082
16:35:36.147,81315,-1.70,-0.37,-0.10,17.45,8083
16:35:36.184,81325,-1.81,0.01,-0.17,18.16,8084
16:35:36.186,81335,-1.84,0.17,-0.21,18.63,8085
16:35:36.186,81345,-1.62,0.04,0.07,16.23,8086
16:35:36.188,81355,-1.02,-0.63,0.25,12.31,8087
16:35:36.197,81365,-0.45,-0.83,0.16,9.55,8088
16:35:36.198,81375,-0.38,-0.81,0.09,8.96,8089
16:35:36.211,81385,-0.54,-0.67,0.24,8.93,8090
16:35:36.219,81395,-0.71,-0.68,0.22,10.03,8091
16:35:36.270,81405,-0.60,-0.81,0.43,11.01,8092
16:35:36.271,81415,-0.77,-0.84,0.40,12.07,8093
16:35:36.271,81425,-0.83,-0.71,0.38,11.57,8094
16:35:36.273,81435,-0.85,-0.55,0.35,10.69,8095
16:35:36.302,81445,-0.81,-0.59,0.29,10.40,8096
16:35:36.345,81455,-0.76,-0.69,0.25,10.56,8097
16:35:36.346,81465,-0.71,-0.80,0.15,10.82,8098
16:35:36.388,81475,-0.70,-0.83,0.05,10.87,8099
16:35:36.389,81485,-0.66,-0.86,0.02,10.86,8100
16:35:36.398,81495,-0.58,-0.89,-0.00,10.59,8101
16:35:36.496,81505,-0.56,-0.88,0.01,10.44,8102
16:35:36.496,81515,-0.65,-0.78,0.11,10.24,8103
16:35:36.496,81525,-0.74,-0.70,0.16,10.30,8104
16:35:36.496,81535,-0.82,-0.65,0.18,10.57,8105
16:35:36.519,81545,-0.88,-0.59,0.20,10.77,8106
16:35:36.524,81555,-0.92,-0.57,0.19,10.97,8107
16:35:36.525,81565,-0.88,-0.58,0.16,10.67,8108
16:35:36.534,81575,-0.82,-0.61,0.13,10.33,8109
16:35:36.534,81585,-0.77,-0.65,0.10,10.13,8110
16:35:36.534,81595,-0.75,-0.68,0.04,10.15,8111
16:35:36.534,81605,-0.73,-0.75,0.01,10.42,8112
16:35:36.534,81615,-0.69,-0.81,-0.03,10.65,8113
16:35:36.534,81625,-0.66,-0.81,-0.04,10.41,8114
16:35:36.534,81635,-0.64,-0.81,-0.05,10.33,8115
16:35:36.534,81645,-0.66,-0.78,-0.03,10.25,8116
16:35:36.534,81655,-0.73,-0.73,0.02,10.30,8117
16:35:36.534,81665,-0.76,-0.71,0.02,10.34,8118
16:35:36.540,81675,-0.77,-0.69,-0.00,10.35,8119
16:35:36.545,81685,-0.75,-0.66,-0.02,9.97,8120
16:35:36.548,81695,-0.75,-0.65,-0.01,9.98,8121
16:35:36.555,81705,-0.80,-0.62,-0.00,10.07,8122
16:35:36.556,81715,-0.84,-0.59,0.02,10.22,8123
16:35:36.560,81725,-0.86,-0.56,0.05,10.25,8124
16:35:36.561,81735,-0.87,-0.53,0.07,10.20,8125
16:35:36.578,81745,-0.89,-0.47,0.08,10.07,8126
16:35:36.579,81755,-0.91,-0.45,0.08,10.21,8127
16:35:36.589,81765,-0.93,-0.46,0.06,10.42,8128
16:35:36.602,81775,-0.95,-0.49,0.02,10.64,8129
16:35:36.614,81785,-0.95,-0.49,-0.03,10.66,8130
16:35:36.621,81795,-0.94,-0.49,-0.07,10.60,8131
16:35:36.632,81805,-0.94,-0.51,-0.09,10.71,8132
16:35:36.641,81815,-0.86,-0.59,-0.06,10.41,8133
16:35:36.654,81825,-0.80,-0.62,-0.13,10.20,8134
16:35:36.659,81835,-0.71,-0.67,-0.17,9.93,8135
16:35:36.695,81845,-0.71,-0.71,-0.14,10.14,8136
16:35:36.696,81855,-0.75,-0.68,-0.09,10.17,8137
16:35:36.697,81865,-0.77,-0.63,-0.09,10.04,8138
16:35:36.697,81875,-0.74,-0.65,-0.04,9.92,8139
16:35:36.735,81885,-0.71,-0.69,-0.00,9.90,8140
16:35:36.737,81895,-0.71,-0.72,0.02,10.16,8141
16:35:36.738,81905,-0.73,-0.68,0.07,9.98,8142
16:35:36.739,81915,-0.79,-0.61,0.12,10.07,8143
16:35:36.777,81925,-0.89,-0.54,0.18,10.61,8144
16:35:36.777,81935,-0.98,-0.49,0.17,11.09,8145
16:35:36.778,81945,-1.06,-0.39,0.20,11.48,8146
16:35:36.780,81955,-0.99,-0.41,0.09,10.79,8147
16:35:36.818,81965,-0.96,-0.61,0.01,11.39,8148
16:35:36.819,81975,-1.03,-0.79,0.03,13.00,8149
16:35:36.820,81985,-1.28,-0.69,0.12,14.62,8150
16:35:36.821,81995,-1.53,-0.52,-0.03,16.16,8151
16:35:36.858,82005,-1.65,-0.30,-0.14,16.84,8152
16:35:36.858,82015,-1.76,-0.26,-0.27,18.02,8153
16:35:36.862,82025,-1.85,-0.50,-0.26,19.35,8154
16:35:36.862,82035,-1.82,-0.68,-0.04,19.45,8155
16:35:36.898,82045,-1.64,-0.75,-0.09,18.08,8156
16:35:36.898,82055,-1.19,-0.89,-0.11,14.85,8157
16:35:36.899,82065,-0.79,-1.12,-0.01,13.68,8158
16:35:36.900,82075,-0.55,-1.33,0.43,15.03,8159
16:35:36.910,82085,-0.42,-1.56,0.70,17.56,8160
16:35:36.920,82095,-0.47,-1.61,0.83,18.75,8161
16:35:36.931,82105,-0.46,-1.42,0.77,16.78,8162
16:35:36.945,82115,-0.34,-1.12,0.91,14.85,8163
16:35:36.950,82125,-0.31,-0.85,1.14,14.52,8164
16:35:36.963,82135,-0.30,-0.64,1.34,15.16,8165
16:35:36.972,82145,-0.38,-0.44,1.25,13.74,8166
16:35:36.983,82155,-0.45,-0.25,0.99,11.11,8167
16:35:36.993,82165,-0.52,-0.18,0.73,9.17,8168
16:35:37.000,82175,-0.39,-0.43,0.55,8.03,8169
16:35:37.015,82185,-0.35,-0.73,0.49,9.46,8170
16:35:37.020,82195,-0.22,-0.99,0.53,11.42,8171
16:35:37.030,82205,-0.04,-0.89,0.64,11.01,8172
16:35:37.040,82215,0.06,-0.82,0.62,10.27,8173
16:35:37.050,82225,0.09,-0.66,0.63,9.19,8174
16:35:37.061,82235,-0.01,-0.49,0.65,8.15,8175
16:35:37.069,82245,-0.11,-0.39,0.70,8.04,8176
16:35:37.083,82255,-0.19,-0.31,0.76,8.44,8177
16:35:37.092,82265,-0.23,-0.28,0.77,8.51,8178
16:35:37.104,82275,-0.15,-0.18,0.74,7.77,8179
16:35:37.109,82285,0.03,-0.24,0.74,7.81,8180
16:35:37.122,82295,0.11,-0.39,0.68,7.88,8181
16:35:37.132,82305,0.12,-0.46,0.56,7.34,8182
16:35:37.142,82315,-0.07,-0.41,0.50,6.50,8183
16:35:37.150,82325,-0.23,-0.39,0.51,6.84,8184
16:35:37.160,82335,-0.33,-0.38,0.58,7.67,8185
16:35:37.170,82345,-0.36,-0.34,0.60,7.80,8186
16:35:37.179,82355,-0.38,-0.30,0.76,9.01,8187
16:35:37.194,82365,-0.45,-0.42,0.80,10.07,8188
16:35:37.199,82375,-0.62,-0.60,0.59,10.42,8189
16:35:37.213,82385,-0.68,-0.71,0.42,10.69,8190
16:35:37.219,82395,-0.65,-0.68,0.29,9.91,8191
16:35:37.231,82405,-0.61,-0.66,0.30,9.50,8192
16:35:37.241,82415,-0.63,-0.58,0.26,8.94,8193
16:35:37.252,82425,-0.80,-0.53,0.21,9.82,8194
16:35:37.259,82435,-0.81,-0.54,0.26,10.07,8195
16:35:37.271,82445,-0.56,-0.46,0.25,7.64,8196
16:35:37.282,82455,-0.55,-0.30,-0.33,7.07,8197
16:35:37.289,82465,-0.69,0.13,-0.74,10.22,8198
16:35:37.305,82475,-0.97,0.29,-1.12,15.12,8199
16:35:37.309,82485,-1.00,0.38,-1.17,15.89,8200
16:35:37.323,82495,-0.82,0.09,-0.95,12.63,8201
16:35:37.333,82505,-0.61,-0.23,-0.64,9.17,8202
16:35:37.340,82515,-0.58,-0.69,-0.43,9.99,8203
16:35:37.353,82525,-0.44,-0.98,-0.16,10.83,8204
16:35:37.359,82535,-0.31,-1.02,-0.23,10.89,8205
16:35:37.369,82545,-0.63,-0.86,-0.15,10.78,8206
16:35:37.379,82555,-1.37,-0.76,0.02,15.67,8207
16:35:37.391,82565,-2.07,-0.60,0.24,21.72,8208
16:35:37.401,82575,-2.13,-0.13,0.24,21.43,8209
16:35:37.439,82585,-1.89,0.31,-0.10,19.15,8210
16:35:37.441,82595,-1.51,0.65,0.04,16.47,8211
16:35:37.441,82605,-0.95,-0.12,0.08,9.60,8212
16:35:37.442,82615,-0.73,-0.54,0.25,9.40,8213
16:35:37.481,82625,-0.51,-1.11,0.25,12.43,8214
16:35:37.482,82635,-0.30,-1.34,0.19,13.89,8215
16:35:37.483,82645,-0.07,-1.58,0.21,15.94,8216
16:35:37.484,82655,-0.15,-1.51,0.05,15.21,8217
16:35:37.523,82665,-0.44,-0.81,0.40,10.04,8218
16:35:37.523,82675,-0.69,-0.62,0.58,10.99,8219
16:35:37.524,82685,-0.95,-0.40,0.63,12.09,8220
16:35:37.525,82695,-1.25,-0.21,0.49,13.54,8221
16:35:37.565,82705,-1.34,-0.07,0.26,13.72,8222
16:35:37.565,82715,-0.96,-0.52,0.15,11.07,8223
16:35:37.565,82725,-0.66,-0.88,0.11,11.03,8224
16:35:37.567,82735,-0.43,-1.09,0.02,11.69,8225
16:35:37.568,82745,-0.29,-1.16,-0.10,12.04,8226
16:35:37.650,82755,-0.29,-1.14,-0.10,11.77,8227
16:35:37.650,82765,-0.52,-0.90,0.06,10.43,8228
16:35:37.651,82775,-0.67,-0.79,0.15,10.45,8229
16:35:37.652,82785,-0.83,-0.66,0.18,10.75,8230
16:35:37.652,82795,-0.96,-0.59,0.26,11.61,8231
16:35:37.655,82805,-1.03,-0.54,0.32,12.03,8232
16:35:37.655,82815,-1.03,-0.47,0.38,11.96,8233
16:35:37.655,82825,-0.95,-0.42,0.30,10.83,8234
16:35:37.670,82835,-0.82,-0.54,0.18,9.92,8235
16:35:37.670,82845,-0.76,-0.64,0.09,9.98,8236
16:35:37.681,82855,-0.73,-0.73,0.05,10.34,8237
16:35:37.697,82865,-0.69,-0.80,-0.01,10.57,8238
16:35:37.699,82875,-0.66,-0.81,-0.04,10.49,8239
16:35:37.714,82885,-0.67,-0.76,-0.04,10.15,8240
16:35:37.783,82895,-0.72,-0.69,-0.02,10.02,8241
16:35:37.784,82905,-0.79,-0.63,-0.02,10.06,8242
16:35:37.844,82915,-0.84,-0.58,-0.02,10.22,8243
16:35:37.845,82925,-0.89,-0.54,-0.01,10.43,8244
16:35:37.848,82935,-0.91,-0.51,0.00,10.45,8245
16:35:37.850,82945,-0.91,-0.51,-0.01,10.43,8246
16:35:37.850,82955,-0.88,-0.54,-0.03,10.29,8247
16:35:37.858,82965,-0.84,-0.60,-0.02,10.32,8248
16:35:37.858,82975,-0.79,-0.64,-0.04,10.24,8249
16:35:37.859,82985,-0.77,-0.67,-0.05,10.22,8250
16:35:37.860,82995,-0.76,-0.65,-0.09,10.06,8251
16:35:37.863,83005,-0.80,-0.61,-0.09,10.09,8252
16:35:37.863,83015,-0.83,-0.59,-0.08,10.20,8253
16:35:37.863,83025,-0.85,-0.57,-0.10,10.28,8254
16:35:37.863,83035,-0.86,-0.55,-0.14,10.32,8255
16:35:37.880,83045,-0.86,-0.56,-0.15,10.36,8256
16:35:37.882,83055,-0.82,-0.62,-0.08,10.30,8257
16:35:37.954,83065,-0.81,-0.62,-0.04,10.22,8258
16:35:37.961,83075,-0.77,-0.66,0.04,10.15,8259
16:35:37.963,83085,-0.73,-0.70,0.10,10.14,8260
16:35:37.967,83095,-0.66,-0.74,0.05,9.92,8261
16:35:37.968,83105,-0.62,-0.76,0.07,9.86,8262
16:35:37.969,83115,-0.61,-0.76,0.07,9.73,8263
16:35:37.971,83125,-0.65,-0.71,0.10,9.66,8264
16:35:37.979,83135,-0.73,-0.65,0.07,9.83,8265
16:35:38.041,83145,-0.75,-0.66,0.05,9.94,8266
16:35:38.068,83155,-0.71,-0.72,0.02,10.10,8267
16:35:38.069,83165,-0.72,-0.70,-0.01,10.05,8268
16:35:38.070,83175,-0.76,-0.65,0.01,10.02,8269
16:35:38.072,83185,-0.82,-0.61,0.07,10.26,8270
16:35:38.075,83195,-0.89,-0.59,0.14,10.77,8271
16:35:38.077,83205,-0.98,-0.59,0.13,11.52,8272
16:35:38.091,83215,-1.09,-0.51,0.14,12.16,8273
16:35:38.091,83225,-1.19,-0.41,0.08,12.66,8274
16:35:38.091,83235,-1.22,-0.38,0.03,12.74,8275
16:35:38.091,83245,-1.17,-0.54,-0.10,12.93,8276
16:35:38.094,83255,-1.22,-0.74,-0.17,14.40,8277
16:35:38.100,83265,-1.46,-0.73,-0.18,16.41,8278
16:35:38.108,83275,-1.66,-0.55,-0.31,17.75,8279
16:35:38.108,83285,-1.70,-0.43,-0.53,18.31,8280
16:35:38.152,83295,-1.79,-0.44,-0.51,19.11,8281
16:35:38.157,83305,-1.73,-0.70,-0.38,19.07,8282
16:35:38.229,83315,-1.69,-0.90,-0.06,19.15,8283
16:35:38.230,83325,-1.49,-0.96,-0.09,17.80,8284
16:35:38.308,83335,-1.09,-1.09,-0.07,15.43,8285
16:35:38.308,83345,-0.66,-1.16,0.19,13.51,8286
16:35:38.311,83355,-0.43,-1.36,0.61,15.54,8287
16:35:38.348,83365,-0.36,-1.44,0.83,17.04,8288
16:35:38.349,83375,-0.41,-1.51,0.87,17.90,8289
16:35:38.351,83385,-0.41,-1.41,1.00,17.78,8290
16:35:38.353,83395,-0.22,-1.19,1.22,17.13,8291
16:35:38.392,83405,-0.12,-0.91,1.45,17.18,8292
16:35:38.392,83415,-0.27,-0.68,1.27,14.64,8293
16:35:38.395,83425,-0.32,-0.39,1.00,11.20,8294
16:35:38.395,83435,-0.37,-0.23,0.82,9.28,8295
16:35:38.395,83445,-0.43,-0.39,0.71,9.13,8296
16:35:38.395,83455,-0.41,-0.61,0.57,9.27,8297
16:35:38.395,83465,-0.35,-0.85,0.48,10.37,8298
16:35:38.395,83475,-0.11,-0.88,0.56,10.53,8299
16:35:38.395,83485,0.09,-0.83,0.58,10.22,8300
16:35:38.395,83495,0.21,-0.72,0.57,9.38,8301
16:35:38.395,83505,0.15,-0.57,0.58,8.33,8302
16:35:38.395,83515,-0.00,-0.45,0.66,8.02,8303
16:35:38.415,83525,-0.10,-0.42,0.71,8.32,8304
16:35:38.415,83535,-0.15,-0.32,0.81,8.79,8305
16:35:38.417,83545,-0.08,-0.26,0.92,9.55,8306
16:35:38.418,83555,0.06,-0.20,0.83,8.59,8307
16:35:38.418,83565,0.06,-0.30,0.67,7.39,8308
16:35:38.420,83575,-0.05,-0.34,0.52,6.28,8309
16:35:38.421,83585,-0.20,-0.34,0.45,5.92,8310
16:35:38.422,83595,-0.29,-0.32,0.47,6.37,8311
16:35:38.429,83605,-0.33,-0.32,0.49,6.74,8312
16:35:38.438,83615,-0.41,-0.32,0.51,7.31,8313
16:35:38.458,83625,-0.49,-0.39,0.57,8.47,8314
16:35:38.458,83635,-0.52,-0.62,0.77,11.20,8315
16:35:38.471,83645,-0.57,-0.86,0.71,12.53,8316
16:35:38.480,83655,-0.54,-0.81,0.21,9.94,8317
16:35:38.492,83665,-0.43,-0.75,0.13,8.74,8318
16:35:38.500,83675,-0.52,-0.71,0.26,9.21,8319
16:35:38.511,83685,-0.66,-0.72,0.25,10.09,8320
16:35:38.522,83695,-0.72,-0.75,0.19,10.55,8321
16:35:38.530,83705,-0.68,-0.65,0.13,9.51,8322
16:35:38.539,83715,-0.66,-0.40,-0.07,7.71,8323
16:35:38.550,83725,-0.69,-0.08,-0.36,7.88,8324
16:35:38.561,83735,-0.93,0.33,-0.70,12.07,8325
16:35:38.570,83745,-1.11,0.52,-1.10,16.51,8326
16:35:38.588,83755,-1.04,0.59,-1.23,17.18,8327
16:35:38.589,83765,-0.83,0.11,-1.06,13.51,8328
16:35:38.599,83775,-0.64,-0.28,-0.66,9.63,8329
16:35:38.609,83785,-0.45,-0.53,-0.27,7.46,8330
16:35:38.626,83795,-0.35,-0.55,0.04,6.51,8331
16:35:38.630,83805,-0.29,-0.67,0.09,7.38,8332
16:35:38.643,83815,-0.68,-0.73,0.18,10.14,8333
16:35:38.651,83825,-1.08,-0.84,0.26,13.98,8334
16:35:38.662,83835,-1.52,-0.96,0.25,18.16,8335
16:35:38.671,83845,-1.78,-0.72,0.12,19.19,8336
16:35:38.686,83855,-1.67,-0.22,-0.08,16.90,8337
16:35:38.730,83865,-1.59,0.22,-0.26,16.30,8338
16:35:38.731,83875,-1.62,0.28,-0.30,16.71,8339
16:35:38.732,83885,-1.46,-0.19,0.15,14.75,8340
16:35:38.738,83895,-0.86,-0.64,0.41,11.45,8341
16:35:38.739,83905,-0.57,-0.87,0.03,10.45,8342
16:35:38.740,83915,-0.35,-0.80,0.11,8.81,8343
16:35:39.059,83925,-0.46,-0.80,0.12,9.35,8344
16:35:39.060,83935,-0.46,-0.86,0.29,10.17,8345
16:35:39.099,83945,-0.60,-0.88,0.35,11.25,8346
16:35:39.099,83955,-0.73,-0.79,0.41,11.54,8347
16:35:39.133,83965,-0.81,-0.59,0.44,10.93,8348
16:35:39.138,83975,-0.93,-0.40,0.41,10.91,8349
16:35:39.140,83985,-1.02,-0.47,0.36,11.73,8350
16:35:39.144,83995,-0.84,-0.67,0.25,11.03,8351
16:35:39.155,84005,-0.67,-0.83,0.15,10.78,8352
16:35:39.155,84015,-0.60,-0.89,0.11,10.77,8353
16:35:39.155,84025,-0.60,-0.83,0.12,10.28,8354
16:35:39.155,84035,-0.63,-0.80,0.13,10.21,8355
16:35:39.155,84045,-0.65,-0.82,0.14,10.51,8356
16:35:39.155,84055,-0.67,-0.77,0.17,10.38,8357
16:35:39.155,84065,-0.71,-0.72,0.22,10.32,8358
16:35:39.155,84075,-0.74,-0.69,0.21,10.30,8359
16:35:39.155,84085,-0.78,-0.68,0.20,10.55,8360
16:35:39.155,84095,-0.81,-0.69,0.19,10.77,8361
16:35:39.157,84105,-0.83,-0.69,0.16,10.91,8362
16:35:39.157,84115,-0.83,-0.66,0.15,10.71,8363
16:35:39.157,84125,-0.83,-0.63,0.14,10.50,8364
16:35:39.157,84135,-0.81,-0.63,0.10,10.31,8365
16:35:39.157,84145,-0.78,-0.67,0.06,10.30,8366
16:35:39.157,84155,-0.74,-0.71,0.04,10.30,8367
16:35:39.157,84165,-0.70,-0.75,0.05,10.30,8368
16:35:39.157,84175,-0.68,-0.77,0.04,10.27,8369
16:35:39.157,84185,-0.67,-0.79,0.06,10.34,8370
16:35:39.157,84195,-0.68,-0.75,0.07,10.14,8371
16:35:39.160,84205,-0.74,-0.70,0.09,10.21,8372
16:35:39.160,84215,-0.79,-0.63,0.09,10.16,8373
16:35:39.160,84225,-0.84,-0.58,0.08,10.19,8374
16:35:39.160,84235,-0.87,-0.53,0.07,10.24,8375
16:35:39.160,84245,-0.87,-0.55,0.04,10.26,8376
16:35:39.160,84255,-0.86,-0.58,0.03,10.31,8377
16:35:39.160,84265,-0.84,-0.61,0.02,10.39,8378
16:35:39.160,84275,-0.82,-0.64,0.00,10.45,8379
16:35:39.160,84285,-0.80,-0.65,-0.02,10.28,8380
16:35:39.160,84295,-0.76,-0.66,-0.04,10.02,8381
16:35:39.171,84305,-0.75,-0.66,-0.06,10.05,8382
16:35:39.172,84315,-0.77,-0.64,-0.07,10.10,8383
16:35:39.176,84325,-0.81,-0.60,-0.09,10.14,8384
16:35:39.176,84335,-0.84,-0.60,-0.09,10.38,8385
16:35:39.176,84345,-0.86,-0.59,-0.06,10.44,8386
16:35:39.178,84355,-0.88,-0.54,-0.06,10.31,8387
16:35:39.190,84365,-0.90,-0.50,-0.04,10.28,8388
16:35:39.207,84375,-0.93,-0.49,-0.04,10.49,8389
16:35:39.209,84385,-0.86,-0.55,-0.03,10.24,8390
16:35:39.218,84395,-0.80,-0.60,-0.06,10.01,8391
16:35:39.231,84405,-0.75,-0.62,-0.08,9.79,8392
16:35:39.243,84415,-0.70,-0.65,-0.10,9.61,8393
16:35:39.249,84425,-0.69,-0.70,-0.07,9.85,8394
16:35:39.268,84435,-0.68,-0.76,-0.05,10.22,8395
16:35:39.268,84445,-0.69,-0.77,-0.03,10.31,8396
16:35:39.279,84455,-0.75,-0.71,-0.01,10.30,8397
16:35:39.289,84465,-0.82,-0.64,0.05,10.43,8398
16:35:39.317,84475,-0.91,-0.55,0.10,10.66,8399
16:35:39.318,84485,-1.00,-0.46,0.11,11.04,8400
16:35:39.319,84495,-1.12,-0.33,0.08,11.68,8401
16:35:39.329,84505,-1.17,-0.31,0.01,12.10,8402
16:35:39.339,84515,-1.11,-0.45,-0.07,11.99,8403
16:35:39.351,84525,-1.03,-0.78,-0.09,12.93,8404
16:35:39.359,84535,-1.29,-0.77,0.01,15.01,8405
16:35:39.369,84545,-1.49,-0.56,0.01,15.88,8406
16:35:39.382,84555,-1.59,-0.38,-0.05,16.39,8407
16:35:39.389,84565,-1.77,-0.29,-0.17,18.01,8408
16:35:39.400,84575,-1.90,-0.39,-0.30,19.59,8409
16:35:39.409,84585,-1.96,-0.42,-0.08,20.09,8410
16:35:39.428,84595,-1.64,-0.47,-0.13,17.15,8411
16:35:39.428,84605,-1.21,-0.75,-0.13,14.32,8412
16:35:39.439,84615,-0.80,-1.09,0.07,13.60,8413
16:35:39.450,84625,-0.52,-1.35,0.39,15.02,8414
16:35:39.460,84635,-0.32,-1.58,0.58,17.16,8415
16:35:39.470,84645,-0.31,-1.62,0.78,18.23,8416
16:35:39.480,84655,-0.23,-1.53,0.89,17.83,8417
16:35:39.554,84665,-0.28,-1.09,1.16,16.16,8418
16:35:39.554,84675,-0.31,-0.79,1.27,15.25,8419
16:35:39.559,84685,-0.55,-0.59,1.16,14.16,8420
16:35:39.560,84695,-0.78,-0.38,1.06,13.67,8421
16:35:39.561,84705,-0.64,-0.22,0.98,11.87,8422
16:35:39.562,84715,-0.60,-0.27,0.76,10.09,8423
16:35:39.564,84725,-0.46,-0.50,0.56,8.82,8424
16:35:39.565,84735,-0.25,-0.67,0.58,9.18,8425
16:35:39.569,84745,-0.05,-0.74,0.64,9.74,8426
16:35:39.614,84755,0.08,-0.81,0.56,9.92,8427
16:35:39.653,84765,0.08,-0.82,0.50,9.70,8428
16:35:39.654,84775,-0.01,-0.73,0.58,9.34,8429
16:35:39.791,84785,-0.07,-0.63,0.69,9.40,8430
16:35:39.799,84795,-0.12,-0.59,0.72,9.36,8431
16:35:39.799,84805,-0.09,-0.47,0.72,8.66,8432
16:35:39.801,84815,-0.05,-0.40,0.72,8.31,8433
16:35:39.804,84825,-0.01,-0.43,0.71,8.31,8434
16:35:39.804,84835,-0.01,-0.46,0.69,8.34,8435
16:35:39.804,84845,-0.12,-0.43,0.62,7.67,8436
16:35:39.804,84855,-0.26,-0.36,0.52,6.82,8437
16:35:39.804,84865,-0.40,-0.32,0.44,6.77,8438
16:35:39.804,84875,-0.41,-0.29,0.54,7.34,8439
16:35:39.805,84885,-0.45,-0.23,0.63,8.12,8440
16:35:39.809,84895,-0.49,-0.20,0.65,8.33,8441
16:35:39.810,84905,-0.53,-0.35,0.62,8.82,8442
16:35:39.811,84915,-0.57,-0.58,0.62,10.22,8443
16:35:39.816,84925,-0.65,-0.78,0.71,12.32,8444
16:35:39.816,84935,-0.59,-0.91,0.66,12.66,8445
16:35:39.816,84945,-0.39,-0.90,0.34,10.43,8446
16:35:39.816,84955,-0.35,-0.69,0.17,7.93,8447
16:35:39.816,84965,-0.62,-0.50,0.13,8.05,8448
16:35:39.816,84975,-0.84,-0.43,0.27,9.81,8449
16:35:39.816,84985,-0.82,-0.38,0.34,9.61,8450
16:35:39.819,84995,-0.73,-0.29,0.17,8.02,8451
16:35:39.835,85005,-0.73,-0.06,-0.21,7.59,8452
16:35:39.840,85015,-0.80,0.30,-0.78,11.55,8453
16:35:39.850,85025,-0.92,0.36,-1.14,15.08,8454
16:35:39.860,85035,-0.82,0.28,-1.18,14.68,8455
16:35:39.872,85045,-0.83,-0.00,-1.01,13.03,8456
16:35:39.879,85055,-0.63,-0.35,-0.60,9.40,8457
16:35:39.898,85065,-0.47,-0.56,-0.27,7.82,8458
16:35:39.904,85075,-0.43,-0.75,-0.09,8.66,8459
16:35:39.911,85085,-0.54,-0.92,-0.09,10.70,8460
16:35:39.920,85095,-0.68,-0.89,-0.00,11.16,8461
16:35:39.930,85105,-1.10,-0.77,-0.01,13.41,8462
16:35:39.939,85115,-1.72,-0.69,0.03,18.53,8463
16:35:39.951,85125,-2.03,-0.35,0.11,20.63,8464
16:35:39.968,85135,-1.97,0.10,-0.02,19.76,8465
16:35:39.969,85145,-1.67,0.60,-0.32,17.97,8466
16:35:39.981,85155,-1.32,0.12,-0.19,13.40,8467
16:35:39.990,85165,-0.95,-0.68,0.24,11.94,8468
16:35:39.999,85175,-0.57,-1.07,0.26,12.35,8469
16:35:40.012,85185,-0.39,-1.07,-0.05,11.42,8470
16:35:40.019,85195,-0.08,-1.01,0.36,10.72,8471
16:35:40.030,85205,-0.20,-1.00,0.35,10.81,8472
16:35:40.105,85215,-0.52,-0.73,0.35,9.64,8473
16:35:40.106,85225,-0.55,-0.61,0.58,10.03,8474
16:35:40.112,85235,-0.83,-0.53,0.73,12.22,8475
16:35:40.115,85245,-1.17,-0.38,0.61,13.73,8476
16:35:40.121,85255,-1.34,-0.21,0.49,14.43,8477
16:35:40.126,85265,-1.05,-0.38,0.32,11.58,8478
16:35:40.136,85275,-0.68,-0.85,0.22,11.13,8479
16:35:40.138,85285,-0.44,-1.08,0.14,11.76,8480
16:35:40.139,85295,-0.31,-1.15,0.02,11.92,8481
16:35:40.140,85305,-0.28,-1.13,-0.06,11.62,8482
16:35:40.142,85315,-0.48,-0.92,0.01,10.43,8483
16:35:40.148,85325,-0.66,-0.82,0.14,10.62,8484
16:35:40.184,85335,-0.74,-0.75,0.19,10.74,8485
16:35:40.186,85345,-0.83,-0.68,0.22,10.91,8486
16:35:40.188,85355,-0.89,-0.64,0.23,11.15,8487
16:35:40.189,85365,-0.91,-0.61,0.21,11.17,8488
16:35:40.210,85375,-0.91,-0.58,0.18,10.95,8489
16:35:40.212,85385,-0.84,-0.63,0.20,10.63,8490
16:35:40.225,85395,-0.78,-0.65,0.18,10.35,8491
16:35:40.240,85405,-0.76,-0.67,0.16,10.24,8492
16:35:40.241,85415,-0.71,-0.74,0.09,10.31,8493
16:35:40.259,85425,-0.68,-0.81,0.04,10.58,8494
16:35:40.272,85435,-0.62,-0.88,0.02,10.80,8495
16:35:40.272,85445,-0.60,-0.90,0.05,10.81,8496
16:35:40.280,85455,-0.65,-0.80,0.04,10.33,8497
16:35:40.292,85465,-0.73,-0.68,0.06,10.01,8498
16:35:40.307,85475,-0.85,-0.55,0.10,10.19,8499
16:35:40.307,85485,-0.95,-0.46,0.13,10.62,8500
16:35:40.320,85495,-1.00,-0.39,0.16,10.88,8501
16:35:40.329,85505,-0.96,-0.41,0.13,10.53,8502
16:35:40.367,85515,-0.86,-0.53,0.02,10.11,8503
16:35:40.373,85525,-0.82,-0.60,-0.04,10.14,8504
16:35:40.409,85535,-0.80,-0.64,-0.06,10.31,8505
16:35:40.409,85545,-0.81,-0.64,-0.08,10.39,8506
16:35:40.528,85555,-0.84,-0.61,-0.10,10.44,8507
16:35:40.529,85565,-0.89,-0.57,-0.15,10.71,8508
16:35:40.529,85575,-0.91,-0.51,-0.19,10.66,8509
16:35:40.530,85585,-0.94,-0.52,-0.20,10.89,8510
16:35:40.530,85595,-0.98,-0.49,-0.19,11.13,8511
16:35:40.567,85605,-1.01,-0.46,-0.21,11.33,8512
16:35:40.568,85615,-0.97,-0.45,-0.26,11.04,8513
16:35:40.568,85625,-0.87,-0.48,-0.22,10.22,8514
16:35:40.569,85635,-0.92,-0.51,-0.32,11.02,8515
16:35:40.574,85645,-0.78,-0.56,-0.25,9.96,8516
16:35:40.574,85655,-0.81,-0.61,-0.14,10.18,8517
16:35:40.574,85665,-0.82,-0.62,-0.05,10.30,8518
16:35:40.574,85675,-0.78,-0.63,0.02,10.01,8519
16:35:40.574,85685,-0.74,-0.67,0.05,9.94,8520
16:35:40.574,85695,-0.70,-0.71,0.05,9.97,8521
16:35:40.574,85705,-0.69,-0.69,0.07,9.75,8522
16:35:40.574,85715,-0.72,-0.64,0.07,9.65,8523
16:35:40.574,85725,-0.78,-0.60,0.09,9.94,8524
16:35:40.574,85735,-0.86,-0.60,0.15,10.60,8525
16:35:40.595,85745,-0.96,-0.54,0.17,11.16,8526
16:35:40.596,85755,-1.02,-0.51,0.14,11.48,8527
16:35:40.596,85765,-0.97,-0.54,0.11,11.17,8528
16:35:40.598,85775,-1.00,-0.55,0.03,11.46,8529
16:35:40.608,85785,-1.03,-0.67,-0.04,12.33,8530
16:35:40.621,85795,-1.15,-0.74,0.06,13.72,8531
16:35:40.634,85805,-1.36,-0.59,0.10,14.84,8532
16:35:40.643,85815,-1.49,-0.41,-0.05,15.49,8533
16:35:40.652,85825,-1.60,-0.23,-0.15,16.20,8534
16:35:40.660,85835,-1.84,-0.23,-0.20,18.68,8535
16:35:40.678,85845,-1.87,-0.50,-0.22,19.51,8536
16:35:40.680,85855,-1.65,-0.63,-0.06,17.72,8537
16:35:40.697,85865,-1.33,-0.76,-0.13,15.38,8538
16:35:40.698,85875,-0.94,-0.98,-0.02,13.52,8539
16:35:40.715,85885,-0.64,-1.22,0.25,14.03,8540
16:35:40.720,85895,-0.44,-1.41,0.51,15.65,8541
16:35:40.729,85905,-0.42,-1.50,0.67,16.98,8542
16:35:40.743,85915,-0.41,-1.45,0.74,16.81,8543
16:35:40.751,85925,-0.36,-1.20,0.85,15.09,8544
16:35:40.762,85935,-0.40,-0.89,0.97,13.77,8545
16:35:40.769,85945,-0.26,-0.67,1.40,15.76,8546
16:35:40.780,85955,-0.43,-0.52,1.29,14.52,8547
16:35:40.796,85965,-0.53,-0.30,1.04,12.01,8548
16:35:40.805,85975,-0.52,-0.17,0.84,10.05,8549
16:35:40.808,85985,-0.46,-0.36,0.66,8.86,8550
16:35:40.883,85995,-0.36,-0.66,0.60,9.57,8551
16:35:40.887,86005,-0.22,-0.86,0.58,10.58,8552
16:35:40.888,86015,-0.03,-0.87,0.66,10.94,8553
16:35:40.891,86025,0.07,-0.81,0.60,10.14,8554
16:35:40.894,86035,0.07,-0.67,0.51,8.42,8555
16:35:40.895,86045,-0.03,-0.55,0.53,7.67,8556
16:35:40.897,86055,-0.11,-0.50,0.66,8.41,8557
16:35:40.898,86065,-0.17,-0.42,0.74,8.68,8558
16:35:40.899,86075,-0.21,-0.36,0.76,8.63,8559
16:35:40.910,86085,-0.14,-0.33,0.77,8.46,8560
16:35:40.921,86095,-0.04,-0.37,0.70,7.96,8561
16:35:40.930,86105,-0.02,-0.46,0.70,8.38,8562
16:35:40.939,86115,-0.05,-0.48,0.69,8.49,8563
16:35:40.958,86125,-0.17,-0.47,0.63,8.06,8564
16:35:40.961,86135,-0.28,-0.43,0.59,7.83,8565
16:35:40.974,86145,-0.35,-0.37,0.54,7.39,8566
16:35:40.979,86155,-0.39,-0.32,0.53,7.28,8567
16:35:40.989,86165,-0.40,-0.26,0.59,7.60,8568
16:35:40.998,86175,-0.45,-0.19,0.58,7.58,8569
16:35:41.009,86185,-0.64,-0.48,0.56,9.75,8570
16:35:41.019,86195,-0.68,-0.78,0.69,12.46,8571
16:35:41.071,86205,-0.64,-0.84,0.67,12.49,8572
16:35:41.072,86215,-0.53,-0.78,0.49,10.67,8573
16:35:41.072,86225,-0.43,-0.75,0.23,8.94,8574
16:35:41.073,86235,-0.45,-0.65,0.09,7.96,8575
16:35:41.077,86245,-0.77,-0.56,0.12,9.54,8576
16:35:41.108,86255,-0.82,-0.52,0.31,10.22,8577
16:35:41.109,86265,-0.78,-0.44,0.27,9.40,8578
16:35:41.110,86275,-0.75,-0.23,0.03,7.89,8579
16:35:41.112,86285,-0.79,-0.02,-0.38,8.76,8580
16:35:41.149,86295,-0.87,0.17,-0.62,10.82,8581
16:35:41.151,86305,-0.94,0.18,-0.86,12.89,8582
16:35:41.153,86315,-0.91,0.10,-0.93,13.03,8583
16:35:41.153,86325,-0.81,-0.14,-0.95,12.63,8584
16:35:41.190,86335,-0.63,-0.29,-0.59,9.11,8585
16:35:41.191,86345,-0.51,-0.52,-0.36,8.08,8586
16:35:41.192,86355,-0.43,-0.57,-0.16,7.31,8587
16:35:41.194,86365,-0.56,-0.70,-0.10,9.06,8588
16:35:41.232,86375,-0.77,-0.76,0.08,10.82,8589
16:35:41.233,86385,-1.05,-0.69,0.16,12.67,8590
16:35:41.234,86395,-1.47,-0.60,0.14,15.92,8591
16:35:41.235,86405,-1.84,-0.38,0.17,18.84,8592
16:35:41.258,86415,-1.86,0.03,0.06,18.66,8593
16:35:41.259,86425,-1.64,0.28,-0.21,16.81,8594
16:35:41.260,86435,-1.45,0.27,-0.31,15.06,8595
16:35:41.272,86445,-0.87,-1.12,-0.13,14.20,8596
16:35:41.282,86455,-0.67,-1.03,0.09,12.32,8597
16:35:41.289,86465,-0.50,-1.07,-0.08,11.82,8598
16:35:41.298,86475,-0.35,-1.01,-0.09,10.72,8599
16:35:41.308,86485,-0.34,-1.06,0.19,11.24,8600
16:35:41.318,86495,-0.65,-0.90,0.32,11.52,8601
16:35:41.331,86505,-0.80,-0.70,0.33,11.14,8602
16:35:41.343,86515,-0.85,-0.52,0.37,10.62,8603
16:35:41.349,86525,-0.82,-0.37,0.60,10.80,8604
16:35:41.361,86535,-0.99,-0.27,0.42,11.12,8605
16:35:41.375,86545,-0.99,-0.40,0.30,11.14,8606
16:35:41.383,86555,-0.84,-0.70,0.16,11.11,8607
16:35:41.391,86565,-0.70,-0.91,0.14,11.52,8608
16:35:41.403,86575,-0.57,-0.97,0.10,11.29,8609
16:35:41.408,86585,-0.48,-0.98,0.04,10.93,8610
16:35:41.437,86595,-0.50,-0.89,0.02,10.17,8611
16:35:41.438,86605,-0.62,-0.81,0.08,10.22,8612
16:35:41.462,86615,-0.72,-0.76,0.14,10.54,8613
16:35:41.462,86625,-0.81,-0.71,0.15,10.87,8614
16:35:41.465,86635,-0.89,-0.64,0.16,11.07,8615
16:35:41.476,86645,-0.91,-0.58,0.16,10.90,8616
16:35:41.486,86655,-0.91,-0.56,0.17,10.77,8617
16:35:41.489,86665,-0.86,-0.60,0.15,10.58,8618
16:35:41.500,86675,-0.81,-0.63,0.12,10.36,8619
16:35:41.517,86685,-0.78,-0.68,0.09,10.36,8620
16:35:41.522,86695,-0.76,-0.70,0.05,10.33,8621
16:35:41.531,86705,-0.73,-0.73,0.01,10.39,8622
16:35:41.538,86715,-0.71,-0.74,0.00,10.27,8623
16:35:41.571,86725,-0.71,-0.73,0.01,10.21,8624
16:35:41.571,86735,-0.72,-0.73,0.03,10.27,8625
16:35:41.663,86745,-0.75,-0.69,0.05,10.25,8626
16:35:41.664,86755,-0.79,-0.64,0.05,10.19,8627
16:35:41.670,86765,-0.83,-0.59,0.05,10.20,8628
16:35:41.676,86775,-0.85,-0.57,0.03,10.24,8629
16:35:41.679,86785,-0.84,-0.59,0.02,10.22,8630
16:35:41.682,86795,-0.80,-0.66,0.02,10.37,8631
16:35:41.686,86805,-0.77,-0.72,0.01,10.55,8632
16:35:41.694,86815,-0.76,-0.74,0.01,10.60,8633
16:35:41.694,86825,-0.74,-0.73,0.00,10.37,8634
16:35:41.694,86835,-0.76,-0.67,0.00,10.13,8635
16:35:41.694,86845,-0.80,-0.62,0.01,10.11,8636
16:35:41.694,86855,-0.82,-0.62,0.01,10.29,8637
16:35:41.696,86865,-0.79,-0.65,-0.04,10.25,8638
16:35:41.698,86875,-0.76,-0.67,-0.12,10.17,8639
16:35:41.717,86885,-0.73,-0.68,-0.17,10.10,8640
16:35:41.721,86895,-0.76,-0.63,-0.21,10.08,8641
16:35:41.802,86905,-0.84,-0.57,-0.17,10.25,8642
16:35:41.802,86915,-0.96,-0.48,-0.11,10.75,8643
16:35:41.803,86925,-1.08,-0.39,-0.06,11.44,8644
16:35:41.804,86935,-1.07,-0.36,-0.10,11.36,8645
16:35:41.842,86945,-0.88,-0.52,-0.10,10.27,8646
16:35:41.845,86955,-0.77,-0.61,-0.10,9.91,8647
16:35:41.882,86965,-0.71,-0.69,-0.09,9.97,8648
16:35:41.882,86975,-0.69,-0.71,-0.06,9.93,8649
16:35:41.882,86985,-0.69,-0.71,0.01,9.90,8650
16:35:41.882,86995,-0.74,-0.72,0.03,10.33,8651
16:35:41.882,87005,-0.69,-0.73,-0.00,10.06,8652
16:35:41.882,87015,-0.63,-0.75,-0.06,9.81,8653
16:35:41.882,87025,-0.68,-0.74,-0.03,10.01,8654
16:35:41.884,87035,-0.75,-0.71,0.06,10.30,8655
16:35:41.885,87045,-0.81,-0.65,0.16,10.50,8656
16:35:41.887,87055,-0.89,-0.59,0.21,10.87,8657
16:35:41.923,87065,-0.95,-0.55,0.22,11.17,8658
16:35:41.923,87075,-1.02,-0.48,0.19,11.48,8659
16:35:41.925,87085,-1.06,-0.41,0.13,11.43,8660
16:35:41.925,87095,-1.07,-0.43,0.06,11.52,8661
16:35:41.965,87105,-1.02,-0.54,-0.01,11.58,8662
16:35:41.966,87115,-1.06,-0.60,-0.13,12.28,8663
16:35:41.967,87125,-1.14,-0.68,-0.14,13.35,8664
16:35:41.978,87135,-1.35,-0.64,-0.11,14.98,8665
16:35:41.980,87145,-1.49,-0.46,0.04,15.62,8666
16:35:41.982,87155,-1.84,-0.37,-0.24,18.95,8667
16:35:41.990,87165,-1.97,-0.27,-0.37,20.27,8668
16:35:42.000,87175,-1.91,-0.49,-0.27,19.89,8669
16:35:42.013,87185,-1.64,-0.66,-0.17,17.74,8670
16:35:42.018,87195,-1.29,-0.87,-0.20,15.71,8671
16:35:42.029,87205,-0.88,-1.14,-0.15,14.49,8672
16:35:42.039,87215,-0.56,-1.34,0.08,14.60,8673
16:35:42.053,87225,-0.32,-1.52,0.52,16.42,8674
16:35:42.058,87235,-0.22,-1.61,0.65,17.53,8675
16:35:42.075,87245,-0.22,-1.53,0.85,17.63,8676
16:35:42.085,87255,-0.32,-1.25,1.04,16.55,8677
16:35:42.093,87265,-0.18,-0.97,1.47,17.70,8678
16:35:42.101,87275,-0.53,-0.70,1.22,15.09,8679
16:35:42.110,87285,-0.85,-0.39,1.12,14.59,8680
16:35:42.119,87295,-0.69,-0.18,1.07,12.84,8681
16:35:42.136,87305,-0.59,-0.17,0.86,10.60,8682
16:35:42.141,87315,-0.47,-0.32,0.69,8.95,8683
16:35:42.150,87325,-0.34,-0.53,0.58,8.57,8684
16:35:42.206,87335,-0.14,-0.67,0.63,9.28,8685
16:35:42.208,87345,0.02,-0.73,0.60,9.44,8686
16:35:42.266,87355,0.10,-0.79,0.50,9.40,8687
16:35:42.267,87365,0.13,-0.80,0.51,9.57,8688
16:35:42.270,87375,-0.01,-0.73,0.62,9.60,8689
16:35:42.274,87385,-0.10,-0.62,0.72,9.56,8690
16:35:42.275,87395,-0.18,-0.48,0.73,8.95,8691
16:35:42.278,87405,-0.18,-0.44,0.65,8.07,8692
16:35:42.280,87415,-0.04,-0.48,0.67,8.20,8693
16:35:42.283,87425,0.01,-0.49,0.72,8.75,8694
16:35:42.297,87435,-0.03,-0.47,0.69,8.38,8695
16:35:42.297,87445,-0.13,-0.42,0.56,7.07,8696
16:35:42.297,87455,-0.22,-0.36,0.50,6.56,8697
16:35:42.298,87465,-0.28,-0.38,0.58,7.47,8698
16:35:42.300,87475,-0.33,-0.39,0.64,8.18,8699
16:35:42.318,87485,-0.41,-0.42,0.63,8.59,8700
16:35:42.323,87495,-0.43,-0.42,0.61,8.54,8701
16:35:42.338,87505,-0.51,-0.47,0.55,8.84,8702
16:35:42.338,87515,-0.61,-0.68,0.73,11.71,8703
16:35:42.350,87525,-0.73,-0.87,0.59,12.78,8704
16:35:42.359,87535,-0.58,-0.82,0.38,10.74,8705
16:35:42.370,87545,-0.52,-0.65,0.18,8.54,8706
16:35:42.383,87555,-0.68,-0.50,0.16,8.63,8707
16:35:42.388,87565,-0.79,-0.41,0.16,9.03,8708
16:35:42.402,87575,-0.73,-0.38,0.15,8.40,8709
16:35:42.413,87585,-0.57,-0.40,0.06,6.98,8710
16:35:42.423,87595,-0.58,-0.17,-0.43,7.44,8711
16:35:42.437,87605,-0.77,0.13,-1.07,13.20,8712
16:35:42.438,87615,-0.92,0.46,-1.38,17.19,8713
16:35:42.455,87625,-0.97,0.49,-1.47,18.29,8714
16:35:42.459,87635,-0.87,0.16,-0.82,12.09,8715
16:35:42.476,87645,-0.67,-0.29,-0.37,8.19,8716
16:35:42.483,87655,-0.46,-0.67,-0.14,8.21,8717
16:35:42.537,87665,-0.24,-0.77,0.18,8.22,8718
16:35:42.537,87675,-0.32,-0.89,-0.02,9.43,8719
16:35:42.537,87685,-0.61,-0.76,0.11,9.80,8720
16:35:42.575,87695,-0.98,-0.73,0.12,12.28,8721
16:35:42.576,87705,-1.49,-0.74,0.09,16.68,8722
16:35:42.577,87715,-1.91,-0.64,0.07,20.14,8723
16:35:42.618,87725,-1.98,-0.20,-0.04,19.87,8724
16:35:42.618,87735,-1.78,0.34,-0.24,18.26,8725
16:35:42.619,87745,-1.69,0.50,-0.36,17.96,8726
16:35:42.620,87755,-1.49,-0.07,0.23,15.11,8727
16:35:42.657,87765,-0.91,-0.37,0.85,13.01,8728
16:35:42.657,87775,-0.71,-0.83,0.03,10.90,8729
16:35:42.658,87785,-0.34,-0.94,0.08,10.06,8730
16:35:42.659,87795,-0.17,-1.06,0.46,11.67,8731
16:35:42.660,87805,-0.34,-1.09,0.31,11.79,8732
16:35:42.662,87815,-0.43,-0.69,0.38,9.03,8733
16:35:42.662,87825,-0.59,-0.57,0.60,10.13,8734
16:35:42.662,87835,-0.79,-0.46,0.80,12.14,8735
16:35:42.695,87845,-1.22,-0.35,0.58,13.97,8736
16:35:42.696,87855,-1.16,-0.38,0.40,12.80,8737
16:35:42.697,87865,-0.84,-0.75,0.31,11.65,8738
16:35:42.698,87875,-0.56,-1.04,0.16,11.89,8739
16:35:42.732,87885,-0.33,-1.09,0.04,11.42,8740
16:35:42.733,87895,-0.26,-1.10,-0.04,11.29,8741
16:35:42.734,87905,-0.42,-0.93,0.01,10.19,8742
16:35:42.762,87915,-0.57,-0.87,0.14,10.55,8743
16:35:42.777,87925,-0.69,-0.83,0.19,10.98,8744
16:35:42.783,87935,-0.80,-0.77,0.20,11.29,8745
16:35:42.785,87945,-0.90,-0.69,0.20,11.46,8746
16:35:42.787,87955,-0.97,-0.54,0.21,11.27,8747
16:35:42.790,87965,-1.00,-0.40,0.21,10.95,8748
16:35:42.798,87975,-0.98,-0.39,0.22,10.75,8749
16:35:42.808,87985,-0.83,-0.55,0.16,10.07,8750
16:35:42.824,87995,-0.77,-0.67,0.09,10.22,8751
16:35:42.828,88005,-0.69,-0.80,0.08,10.58,8752
16:35:42.977,88015,-0.63,-0.89,0.03,10.92,8753
16:35:42.981,88025,-0.58,-0.94,-0.01,11.08,8754
16:35:42.982,88035,-0.59,-0.88,0.00,10.59,8755
16:35:42.985,88045,-0.65,-0.78,0.02,10.11,8756
16:35:42.985,88055,-0.73,-0.67,-0.00,9.94,8757
16:35:42.990,88065,-0.79,-0.61,0.01,10.01,8758
16:35:42.992,88075,-0.86,-0.57,0.05,10.37,8759
16:35:42.992,88085,-0.86,-0.57,0.04,10.34,8760
16:35:42.992,88095,-0.83,-0.60,0.01,10.22,8761
16:35:42.992,88105,-0.80,-0.61,0.00,10.08,8762
16:35:42.992,88115,-0.81,-0.61,0.03,10.19,8763
16:35:42.992,88125,-0.83,-0.59,0.03,10.17,8764
16:35:42.992,88135,-0.83,-0.56,0.02,9.96,8765
16:35:42.992,88145,-0.86,-0.53,0.02,10.11,8766
16:35:42.992,88155,-0.87,-0.51,0.02,10.13,8767
16:35:42.993,88165,-0.91,-0.51,0.01,10.40,8768
16:35:42.999,88175,-0.94,-0.49,-0.05,10.62,8769
16:35:43.009,88185,-0.97,-0.45,-0.11,10.74,8770
16:35:43.025,88195,-0.95,-0.48,-0.16,10.74,8771
16:35:43.029,88205,-0.90,-0.54,-0.23,10.79,8772
16:35:43.045,88215,-0.89,-0.54,-0.27,10.72,8773
16:35:43.052,88225,-0.89,-0.56,-0.24,10.78,8774
16:35:43.058,88235,-0.89,-0.58,-0.17,10.74,8775
16:35:43.068,88245,-0.83,-0.59,-0.12,10.24,8776
16:35:43.078,88255,-0.76,-0.62,-0.09,9.83,8777
16:35:43.093,88265,-0.77,-0.65,-0.05,10.09,8778
16:35:43.098,88275,-0.74,-0.68,-0.03,10.07,8779
16:35:43.110,88285,-0.70,-0.68,-0.04,9.77,8780
16:35:43.180,88295,-0.73,-0.65,-0.01,9.77,8781
16:35:43.304,88305,-0.85,-0.58,0.06,10.30,8782
16:35:43.393,88315,-0.97,-0.51,0.12,11.04,8783
16:35:43.397,88325,-1.05,-0.46,0.15,11.59,8784
16:35:43.398,88335,-1.09,-0.41,0.08,11.65,8785
16:35:43.431,88345,-1.11,-0.37,0.04,11.65,8786
16:35:43.433,88355,-1.18,-0.41,0.03,12.49,8787
16:35:43.435,88365,-1.27,-0.59,0.12,14.06,8788
16:35:43.445,88375,-1.60,-0.64,0.07,17.23,8789
16:35:43.448,88385,-1.77,-0.47,-0.14,18.37,8790
16:35:43.460,88395,-1.83,-0.32,-0.36,18.90,8791
16:35:43.460,88405,-1.83,-0.35,-0.42,19.07,8792
16:35:43.460,88415,-1.62,-0.76,-0.24,18.07,8793
16:35:43.460,88425,-1.46,-1.14,-0.05,18.48,8794
16:35:43.460,88435,-1.10,-1.25,0.00,16.65,8795
16:35:43.460,88445,-0.75,-1.28,0.11,14.90,8796
16:35:43.460,88455,-0.46,-1.39,0.39,15.11,8797
16:35:43.460,88465,-0.34,-1.52,0.65,16.84,8798
16:35:43.460,88475,-0.34,-1.50,0.75,17.17,8799
16:35:43.460,88485,-0.37,-1.36,0.92,16.82,8800
16:35:43.462,88495,-0.33,-1.11,1.16,16.41,8801
16:35:43.462,88505,-0.10,-0.87,1.66,18.72,8802
16:35:43.462,88515,-0.40,-0.57,1.26,14.42,8803
16:35:43.462,88525,-0.55,-0.31,0.92,11.21,8804
16:35:43.462,88535,-0.47,-0.11,0.89,10.12,8805
16:35:43.462,88545,-0.43,-0.29,0.74,9.06,8806
16:35:43.462,88555,-0.36,-0.57,0.64,9.28,8807
16:35:43.462,88565,-0.22,-0.76,0.60,9.97,8808
16:35:43.462,88575,-0.01,-0.76,0.62,9.85,8809
16:35:43.462,88585,0.17,-0.75,0.54,9.42,8810
16:35:43.464,88595,0.25,-0.73,0.59,9.68,8811
16:35:43.464,88605,0.05,-0.60,0.62,8.64,8812
16:35:43.466,88615,-0.07,-0.52,0.68,8.58,8813
16:35:43.466,88625,-0.18,-0.41,0.74,8.62,8814
16:35:43.469,88635,-0.25,-0.33,0.77,8.78,8815
16:35:43.470,88645,-0.19,-0.31,0.86,9.31,8816
16:35:43.478,88655,-0.06,-0.34,0.82,8.85,8817
16:35:43.494,88665,-0.05,-0.37,0.77,8.57,8818
16:35:43.498,88675,-0.12,-0.38,0.66,7.67,8819
16:35:43.509,88685,-0.21,-0.31,0.56,6.74,8820
