timestamp,time,ax,ay,az,mag,time2
16:31:18.555,16566,-0.86,-0.56,0.08,10.30,1606
16:31:18.564,16576,-0.86,-0.56,0.08,10.31,1607
16:31:18.573,16586,-0.85,-0.56,0.07,10.20,1608
16:31:18.585,16596,-0.84,-0.57,0.09,10.22,1609
16:31:18.596,16606,-0.85,-0.57,0.09,10.24,1610
16:31:18.633,16616,-0.84,-0.57,0.08,10.19,1611
16:31:18.634,16626,-0.85,-0.57,0.09,10.23,1612
16:31:18.637,16636,-0.86,-0.58,0.08,10.34,1613
16:31:18.672,16646,-0.85,-0.57,0.08,10.31,1614
16:31:18.673,16656,-0.85,-0.57,0.07,10.21,1615
16:31:18.717,16666,-0.85,-0.56,0.07,10.24,1616
16:31:18.752,16676,-0.86,-0.55,0.07,10.21,1617
16:31:18.755,16686,-0.85,-0.55,0.06,10.15,1618
16:31:18.755,16696,-0.85,-0.57,0.08,10.26,1619
16:31:18.836,16706,-0.85,-0.57,0.07,10.25,1620
16:31:18.836,16716,-0.85,-0.57,0.07,10.25,1621
16:31:18.836,16726,-0.85,-0.56,0.07,10.20,1622
16:31:18.843,16736,-0.86,-0.57,0.07,10.37,1623
16:31:18.843,16746,-0.87,-0.58,0.08,10.43,1624
16:31:18.880,16756,-0.87,-0.56,0.10,10.37,1625
16:31:18.890,16766,-0.86,-0.56,0.08,10.27,1626
16:31:18.890,16776,-0.86,-0.55,0.08,10.25,1627
16:31:18.894,16786,-0.85,-0.56,0.08,10.23,1628
16:31:18.894,16796,-0.85,-0.56,0.07,10.21,1629
16:31:18.894,16806,-0.84,-0.57,0.08,10.19,1630
16:31:18.894,16816,-0.85,-0.57,0.07,10.23,1631
16:31:18.894,16826,-0.85,-0.56,0.07,10.25,1632
16:31:18.894,16836,-0.86,-0.56,0.08,10.32,1633
16:31:18.894,16846,-0.86,-0.55,0.08,10.29,1634
16:31:18.894,16856,-0.86,-0.54,0.08,10.14,1635
16:31:18.894,16866,-0.87,-0.54,0.06,10.21,1636
16:31:18.896,16876,-0.86,-0.53,0.05,10.10,1637
16:31:18.896,16886,-0.86,-0.55,0.04,10.23,1638
16:31:18.898,16896,-0.86,-0.55,0.04,10.25,1639
16:31:18.905,16906,-0.85,-0.58,0.05,10.31,1640
16:31:18.905,16916,-0.86,-0.58,0.08,10.46,1641
16:31:18.923,16926,-0.87,-0.56,0.08,10.43,1642
16:31:18.923,16936,-0.85,-0.55,0.07,10.16,1643
16:31:18.936,16946,-0.86,-0.54,0.09,10.21,1644
16:31:18.943,16956,-0.85,-0.55,0.10,10.15,1645
16:31:18.956,16966,-0.85,-0.57,0.10,10.31,1646
16:31:18.963,16976,-0.86,-0.57,0.10,10.38,1647
16:31:18.980,16986,-0.85,-0.57,0.10,10.29,1648
16:31:18.983,16996,-0.85,-0.57,0.09,10.25,1649
16:31:18.994,17006,-0.85,-0.56,0.11,10.23,1650
16:31:19.011,17016,-0.85,-0.56,0.12,10.24,1651
16:31:19.011,17026,-0.85,-0.56,0.11,10.24,1652
16:31:19.028,17036,-0.85,-0.56,0.12,10.24,1653
16:31:19.033,17046,-0.85,-0.56,0.12,10.27,1654
16:31:19.048,17056,-0.84,-0.55,0.10,10.14,1655
16:31:19.053,17066,-0.84,-0.54,0.09,10.04,1656
16:31:19.067,17076,-0.84,-0.54,0.09,10.06,1657
16:31:19.076,17086,-0.85,-0.55,0.09,10.15,1658
16:31:19.087,17096,-0.85,-0.55,0.09,10.17,1659
16:31:19.093,17106,-0.85,-0.55,0.08,10.11,1660
16:31:19.103,17116,-0.85,-0.54,0.09,10.08,1661
16:31:19.113,17126,-0.86,-0.53,0.08,10.10,1662
16:31:19.140,17136,-0.85,-0.52,0.07,10.03,1663
16:31:19.141,17146,-0.86,-0.52,0.07,10.07,1664
16:31:19.145,17156,-0.87,-0.52,0.04,10.08,1665
16:31:19.156,17166,-0.87,-0.51,0.04,10.13,1666
16:31:19.166,17176,-0.88,-0.51,0.00,10.15,1667
16:31:19.173,17186,-0.90,-0.51,-0.02,10.36,1668
16:31:19.188,17196,-0.91,-0.50,-0.04,10.37,1669
16:31:19.193,17206,-0.92,-0.52,-0.10,10.57,1670
16:31:19.203,17216,-0.89,-0.53,-0.15,10.47,1671
16:31:19.213,17226,-0.86,-0.54,-0.17,10.25,1672
16:31:19.224,17236,-0.83,-0.54,-0.19,10.13,1673
16:31:19.235,17246,-0.84,-0.56,-0.19,10.31,1674
16:31:19.246,17256,-0.88,-0.58,-0.18,10.66,1675
16:31:19.254,17266,-0.89,-0.60,-0.13,10.82,1676
16:31:19.263,17276,-0.90,-0.61,-0.08,10.95,1677
16:31:19.275,17286,-0.93,-0.60,-0.03,11.09,1678
16:31:19.284,17296,-0.93,-0.60,-0.01,11.08,1679
16:31:19.325,17306,-0.92,-0.62,0.03,11.09,1680
16:31:19.326,17316,-0.92,-0.64,0.05,11.26,1681
16:31:19.327,17326,-0.94,-0.66,0.09,11.56,1682
16:31:19.328,17336,-0.95,-0.69,0.14,11.82,1683
16:31:19.367,17346,-0.93,-0.70,0.16,11.77,1684
16:31:19.368,17356,-0.91,-0.70,0.17,11.64,1685
16:31:19.369,17366,-0.90,-0.68,0.16,11.43,1686
16:31:19.370,17376,-0.88,-0.69,0.16,11.31,1687
16:31:19.400,17386,-0.85,-0.71,0.15,11.13,1688
16:31:19.401,17396,-0.83,-0.70,0.13,10.98,1689
16:31:19.402,17406,-0.82,-0.71,0.13,10.93,1690
16:31:19.403,17416,-0.83,-0.70,0.12,10.89,1691
16:31:19.434,17426,-0.84,-0.68,0.11,10.87,1692
16:31:19.436,17436,-0.84,-0.66,0.12,10.75,1693
16:31:19.436,17446,-0.85,-0.62,0.12,10.53,1694
16:31:19.475,17456,-0.86,-0.58,0.12,10.42,1695
16:31:19.475,17466,-0.87,-0.56,0.11,10.38,1696
16:31:19.477,17476,-0.87,-0.55,0.10,10.30,1697
16:31:19.518,17486,-0.87,-0.56,0.09,10.38,1698
16:31:19.532,17496,-0.87,-0.59,0.09,10.53,1699
16:31:19.533,17506,-0.86,-0.60,0.07,10.52,1700
16:31:19.535,17516,-0.86,-0.62,0.05,10.61,1701
16:31:19.535,17526,-0.87,-0.61,0.05,10.65,1702
16:31:19.555,17536,-0.88,-0.60,0.05,10.64,1703
16:31:19.557,17546,-0.89,-0.58,0.03,10.60,1704
16:31:19.557,17556,-0.89,-0.57,0.02,10.57,1705
16:31:19.588,17566,-0.90,-0.56,0.01,10.62,1706
16:31:19.588,17576,-0.90,-0.56,-0.01,10.58,1707
16:31:19.591,17586,-0.91,-0.56,0.01,10.68,1708
16:31:19.591,17596,-0.93,-0.54,0.01,10.74,1709
16:31:19.597,17606,-0.93,-0.50,0.00,10.56,1710
16:31:19.604,17616,-0.94,-0.47,-0.01,10.53,1711
16:31:19.620,17626,-0.95,-0.46,-0.02,10.59,1712
16:31:19.623,17636,-0.93,-0.45,-0.02,10.36,1713
16:31:19.633,17646,-0.92,-0.46,-0.03,10.29,1714
16:31:19.649,17656,-0.93,-0.45,-0.06,10.30,1715
16:31:19.658,17666,-0.92,-0.44,-0.07,10.26,1716
16:31:19.669,17676,-0.93,-0.45,-0.06,10.38,1717
16:31:19.673,17686,-0.92,-0.47,-0.07,10.33,1718
16:31:19.691,17696,-0.90,-0.45,-0.09,10.07,1719
16:31:19.693,17706,-0.89,-0.44,-0.11,9.97,1720
16:31:19.703,17716,-0.89,-0.46,-0.10,10.08,1721
16:31:19.755,17726,-0.93,-0.45,-0.12,10.36,1722
16:31:19.755,17736,-0.93,-0.43,-0.15,10.35,1723
16:31:19.756,17746,-0.93,-0.41,-0.20,10.37,1724
16:31:19.757,17756,-0.90,-0.40,-0.25,10.14,1725
16:31:19.759,17766,-0.89,-0.39,-0.29,10.15,1726
16:31:19.789,17776,-0.92,-0.38,-0.31,10.41,1727
16:31:19.790,17786,-0.92,-0.35,-0.33,10.38,1728
16:31:19.790,17796,-0.93,-0.34,-0.33,10.43,1729
16:31:19.793,17806,-0.93,-0.34,-0.32,10.43,1730
16:31:19.823,17816,-0.92,-0.34,-0.31,10.27,1731
16:31:19.823,17826,-0.88,-0.33,-0.32,9.92,1732
16:31:19.825,17836,-0.85,-0.38,-0.31,9.82,1733
16:31:19.864,17846,-0.83,-0.45,-0.30,9.93,1734
16:31:19.864,17856,-0.81,-0.50,-0.28,9.88,1735
16:31:19.867,17866,-0.80,-0.50,-0.26,9.77,1736
16:31:19.867,17876,-0.80,-0.44,-0.24,9.46,1737
16:31:19.906,17886,-0.81,-0.41,-0.24,9.42,1738
16:31:19.909,17896,-0.81,-0.42,-0.24,9.44,1739
16:31:19.909,17906,-0.81,-0.44,-0.23,9.52,1740
16:31:19.909,17916,-0.80,-0.47,-0.24,9.59,1741
16:31:19.942,17926,-0.95,-0.58,-0.32,11.60,1742
16:31:19.943,17936,-0.83,-0.64,-0.35,11.09,1743
16:31:19.946,17946,-0.81,-0.62,-0.39,10.95,1744
16:31:19.947,17956,-1.11,-0.53,-0.30,12.66,1745
16:31:19.954,17966,-1.45,-0.34,-0.15,14.93,1746
16:31:19.964,17976,-1.54,-0.06,-0.21,15.57,1747
16:31:19.974,17986,-1.29,-0.03,-0.37,13.40,1748
16:31:19.989,17996,-1.18,-0.30,-0.45,13.00,1749
16:31:19.994,18006,-1.19,-0.48,-0.31,13.23,1750
16:31:20.005,18016,-1.15,-0.55,-0.24,12.94,1751
16:31:20.014,18026,-1.01,-0.58,-0.26,11.93,1752
16:31:20.031,18036,-0.90,-0.63,-0.20,11.18,1753
16:31:20.034,18046,-0.81,-0.72,-0.14,10.90,1754
16:31:20.048,18056,-0.85,-0.94,-0.01,12.66,1755
16:31:20.057,18066,-0.83,-0.90,0.12,12.32,1756
16:31:20.064,18076,-0.91,-0.66,0.27,11.55,1757
16:31:20.073,18086,-0.72,-0.43,0.35,9.09,1758
16:31:20.086,18096,-0.76,-0.42,0.38,9.53,1759
16:31:20.097,18106,-0.80,-0.55,0.28,10.06,1760
16:31:20.107,18116,-0.86,-0.71,0.23,11.36,1761
16:31:20.183,18126,-0.87,-0.81,0.18,12.02,1762
16:31:20.185,18136,-0.84,-0.77,0.08,11.44,1763
16:31:20.187,18146,-0.88,-0.57,0.04,10.49,1764
16:31:20.187,18156,-0.95,-0.47,-0.03,10.56,1765
16:31:20.189,18166,-0.99,-0.46,-0.04,10.87,1766
16:31:20.192,18176,-1.01,-0.45,-0.04,11.11,1767
16:31:20.194,18186,-1.04,-0.45,-0.04,11.34,1768
16:31:20.194,18196,-1.00,-0.49,-0.08,11.19,1769
16:31:20.194,18206,-0.86,-0.64,-0.17,10.81,1770
16:31:20.213,18216,-0.72,-0.81,-0.23,11.09,1771
16:31:20.213,18226,-0.64,-0.90,-0.23,11.26,1772
16:31:20.224,18236,-0.65,-0.90,-0.24,11.39,1773
16:31:20.233,18246,-0.71,-0.86,-0.21,11.35,1774
16:31:20.280,18256,-0.76,-0.78,-0.17,11.03,1775
16:31:20.280,18266,-0.77,-0.77,-0.16,10.99,1776
16:31:20.283,18276,-0.75,-0.78,-0.15,10.91,1777
16:31:20.283,18286,-0.76,-0.77,-0.14,10.91,1778
16:31:20.283,18296,-0.75,-0.76,-0.13,10.78,1779
16:31:20.320,18306,-0.74,-0.75,-0.11,10.59,1780
16:31:20.320,18316,-0.72,-0.75,-0.11,10.42,1781
16:31:20.321,18326,-0.75,-0.70,-0.10,10.34,1782
16:31:20.324,18336,-0.83,-0.64,-0.10,10.53,1783
16:31:20.362,18346,-0.90,-0.60,-0.05,10.84,1784
16:31:20.365,18356,-0.90,-0.58,-0.05,10.76,1785
16:31:20.365,18366,-0.84,-0.60,-0.08,10.38,1786
16:31:20.365,18376,-0.79,-0.65,-0.10,10.25,1787
16:31:20.403,18386,-0.77,-0.72,-0.14,10.56,1788
16:31:20.404,18396,-0.77,-0.73,-0.16,10.69,1789
16:31:20.407,18406,-0.80,-0.70,-0.17,10.77,1790
16:31:20.408,18416,-0.80,-0.73,-0.16,10.89,1791
16:31:20.444,18426,-0.76,-0.75,-0.18,10.88,1792
16:31:20.445,18436,-0.69,-0.80,-0.24,10.81,1793
16:31:20.448,18446,-0.60,-0.84,-0.25,10.61,1794
16:31:20.449,18456,-0.65,-0.81,-0.27,10.71,1795
16:31:20.484,18466,-0.78,-0.68,-0.22,10.53,1796
16:31:20.485,18476,-0.92,-0.55,-0.14,10.79,1797
16:31:20.486,18486,-0.98,-0.46,-0.07,10.88,1798
16:31:20.487,18496,-0.95,-0.44,-0.07,10.51,1799
16:31:20.499,18506,-0.91,-0.45,-0.09,10.21,1800
16:31:20.503,18516,-0.93,-0.45,-0.08,10.36,1801
16:31:20.514,18526,-1.00,-0.47,-0.00,11.00,1802
16:31:20.523,18536,-1.02,-0.48,0.08,11.35,1803
16:31:20.533,18546,-0.93,-0.56,0.14,10.95,1804
16:31:20.549,18556,-0.73,-0.73,0.14,10.39,1805
16:31:20.558,18566,-0.65,-0.78,0.12,10.22,1806
16:31:20.562,18576,-0.68,-0.81,0.07,10.57,1807
16:31:20.572,18586,-0.71,-0.79,0.04,10.62,1808
16:31:20.583,18596,-0.80,-0.76,0.04,11.01,1809
16:31:20.592,18606,-0.84,-0.66,0.04,10.64,1810
16:31:20.604,18616,-0.83,-0.58,0.00,10.12,1811
16:31:20.615,18626,-0.80,-0.62,-0.02,10.12,1812
16:31:20.625,18636,-0.77,-0.68,-0.06,10.29,1813
16:31:20.636,18646,-0.76,-0.72,-0.07,10.47,1814
16:31:20.646,18656,-0.77,-0.70,-0.10,10.48,1815
16:31:20.655,18666,-0.80,-0.66,-0.10,10.46,1816
16:31:20.665,18676,-0.80,-0.63,-0.06,10.20,1817
16:31:20.673,18686,-0.80,-0.63,-0.02,10.18,1818
16:31:20.682,18696,-0.79,-0.66,0.04,10.25,1819
16:31:20.693,18706,-0.79,-0.68,0.06,10.42,1820
16:31:20.708,18716,-0.79,-0.69,0.07,10.46,1821
16:31:20.713,18726,-0.78,-0.71,0.08,10.61,1822
16:31:20.722,18736,-0.78,-0.69,0.08,10.41,1823
16:31:20.733,18746,-0.75,-0.67,0.07,10.07,1824
16:31:20.742,18756,-0.75,-0.68,0.05,10.11,1825
16:31:20.752,18766,-0.82,-0.67,0.07,10.59,1826
16:31:20.762,18776,-0.89,-0.63,0.06,10.91,1827
16:31:20.772,18786,-0.89,-0.63,0.06,10.89,1828
16:31:20.782,18796,-0.84,-0.64,0.02,10.60,1829
16:31:20.794,18806,-0.84,-0.63,-0.00,10.46,1830
16:31:20.811,18816,-0.86,-0.67,0.00,10.90,1831
16:31:20.812,18826,-0.89,-0.71,0.01,11.38,1832
16:31:20.825,18836,-0.91,-0.73,-0.01,11.68,1833
16:31:20.840,18846,-0.88,-0.70,-0.06,11.26,1834
16:31:20.842,18856,-0.86,-0.62,-0.12,10.72,1835
16:31:20.885,18866,-0.88,-0.60,-0.08,10.68,1836
16:31:20.886,18876,-0.93,-0.60,-0.01,11.07,1837
16:31:20.888,18886,-0.96,-0.59,0.03,11.31,1838
16:31:20.889,18896,-1.00,-0.54,0.03,11.37,1839
16:31:20.892,18906,-1.05,-0.46,0.05,11.43,1840
16:31:20.902,18916,-1.14,-0.38,0.07,12.00,1841
16:31:20.917,18926,-1.22,-0.37,0.08,12.75,1842
16:31:20.923,18936,-1.39,-0.20,0.15,14.15,1843
16:31:20.935,18946,-1.49,-0.12,0.09,14.95,1844
16:31:20.945,18956,-1.43,-0.20,0.06,14.42,1845
16:31:20.954,18966,-1.13,-0.61,0.05,12.85,1846
16:31:20.962,18976,-0.97,-0.90,-0.01,13.26,1847
16:31:20.974,18986,-0.80,-1.12,-0.07,13.76,1848
16:31:20.991,18996,-0.71,-1.29,0.06,14.74,1849
16:31:20.993,19006,-0.67,-1.33,0.16,14.92,1850
16:31:21.002,19016,-0.69,-1.27,0.34,14.83,1851
16:31:21.020,19026,-0.62,-1.22,0.42,14.32,1852
16:31:21.021,19036,-0.48,-1.18,0.45,13.50,1853
16:31:21.036,19046,-0.35,-1.12,0.58,13.07,1854
16:31:21.042,19056,-0.28,-1.03,0.68,12.68,1855
16:31:21.055,19066,-0.35,-0.89,0.61,11.33,1856
16:31:21.064,19076,-0.50,-0.86,0.56,11.40,1857
16:31:21.072,19086,-0.60,-0.84,0.53,11.67,1858
16:31:21.112,19096,-0.59,-0.85,0.50,11.48,1859
16:31:21.114,19106,-0.48,-0.86,0.54,11.26,1860
16:31:21.115,19116,-0.36,-0.84,0.53,10.60,1861
16:31:21.116,19126,-0.28,-0.79,0.50,9.76,1862
16:31:21.154,19136,-0.27,-0.74,0.52,9.43,1863
16:31:21.155,19146,-0.25,-0.74,0.50,9.28,1864
16:31:21.156,19156,-0.26,-0.79,0.50,9.69,1865
16:31:21.157,19166,-0.21,-0.76,0.55,9.63,1866
16:31:21.195,19176,-0.19,-0.73,0.53,9.21,1867
16:31:21.196,19186,-0.15,-0.72,0.52,9.02,1868
16:31:21.198,19196,-0.13,-0.73,0.52,9.07,1869
16:31:21.199,19206,-0.12,-0.77,0.47,9.15,1870
16:31:21.234,19216,-0.11,-0.78,0.47,9.16,1871
16:31:21.236,19226,-0.13,-0.77,0.47,9.08,1872
16:31:21.236,19236,-0.21,-0.72,0.47,8.86,1873
16:31:21.237,19246,-0.28,-0.69,0.48,8.91,1874
16:31:21.275,19256,-0.31,-0.69,0.51,9.09,1875
16:31:21.277,19266,-0.33,-0.68,0.52,9.20,1876
16:31:21.278,19276,-0.37,-0.62,0.51,8.81,1877
16:31:21.278,19286,-0.43,-0.50,0.50,8.28,1878
16:31:21.308,19296,-0.53,-0.42,0.52,8.47,1879
16:31:21.309,19306,-0.61,-0.37,0.55,8.99,1880
16:31:21.311,19316,-0.69,-0.38,0.55,9.61,1881
16:31:21.312,19326,-0.68,-0.45,0.49,9.50,1882
16:31:21.324,19336,-0.65,-0.46,0.37,8.78,1883
16:31:21.334,19346,-0.56,-0.53,0.31,8.27,1884
16:31:21.348,19356,-0.51,-0.73,0.34,9.51,1885
16:31:21.352,19366,-0.51,-0.85,0.32,10.46,1886
16:31:21.370,19376,-0.52,-0.79,0.20,9.65,1887
16:31:21.371,19386,-0.52,-0.59,-0.04,7.84,1888
16:31:21.389,19396,-0.68,-0.48,-0.03,8.30,1889
16:31:21.393,19406,-0.82,-0.50,0.23,9.86,1890
16:31:21.405,19416,-0.90,-0.45,0.27,10.37,1891
16:31:21.415,19426,-0.96,-0.34,0.08,10.18,1892
16:31:21.425,19436,-0.90,-0.30,-0.10,9.51,1893
16:31:21.435,19446,-0.87,-0.36,-0.18,9.58,1894
16:31:21.450,19456,-0.77,-0.36,-0.19,8.68,1895
16:31:21.453,19466,-0.64,-0.38,-0.34,8.17,1896
16:31:21.466,19476,-0.56,-0.38,-0.53,8.61,1897
16:31:21.474,19486,-0.60,-0.31,-0.71,9.75,1898
16:31:21.483,19496,-0.64,-0.24,-0.81,10.56,1899
16:31:21.492,19506,-0.57,-0.22,-0.74,9.62,1900
16:31:21.502,19516,-0.56,-0.21,-0.58,8.35,1901
16:31:21.513,19526,-0.57,-0.25,-0.41,7.42,1902
16:31:21.529,19536,-0.56,-0.33,-0.23,6.88,1903
16:31:21.534,19546,-0.51,-0.47,-0.07,7.01,1904
16:31:21.548,19556,-0.62,-0.61,-0.04,8.70,1905
16:31:21.557,19566,-0.98,-0.81,-0.13,12.76,1906
16:31:21.564,19576,-1.20,-0.99,-0.17,15.67,1907
16:31:21.575,19586,-1.41,-0.97,-0.16,17.19,1908
16:31:21.585,19596,-1.58,-0.50,-0.32,16.91,1909
16:31:21.595,19606,-1.72,0.11,-0.52,18.04,1910
16:31:21.621,19616,-2.10,0.36,-0.55,21.96,1911
16:31:21.624,19626,-1.99,0.07,-0.49,20.55,1912
16:31:21.624,19636,-1.20,-0.76,-0.16,14.37,1913
16:31:21.634,19646,-0.74,-1.01,-0.19,12.67,1914
16:31:21.653,19656,-0.45,-0.90,-0.15,10.21,1915
16:31:21.654,19666,-0.52,-0.75,0.22,9.40,1916
16:31:21.664,19676,-0.78,-0.68,0.33,10.85,1917
16:31:21.682,19686,-0.79,-0.75,0.60,12.44,1918
16:31:21.683,19696,-0.78,-0.76,0.78,13.39,1919
16:31:21.694,19706,-0.86,-0.48,0.68,12.00,1920
16:31:21.703,19716,-0.99,-0.26,0.42,11.04,1921
16:31:21.713,19726,-0.99,-0.24,0.25,10.51,1922
16:31:21.729,19736,-0.91,-0.57,0.10,10.76,1923
16:31:21.734,19746,-0.79,-0.86,0.01,11.72,1924
16:31:21.751,19756,-0.69,-1.02,-0.02,12.32,1925
16:31:21.753,19766,-0.57,-1.11,-0.00,12.47,1926
16:31:21.812,19776,-0.40,-1.14,-0.05,12.11,1927
16:31:21.813,19786,-0.37,-0.97,-0.09,10.43,1928
16:31:21.814,19796,-0.62,-0.77,0.00,9.92,1929
16:31:21.814,19806,-0.81,-0.72,0.06,10.85,1930
16:31:21.815,19816,-0.95,-0.63,0.09,11.41,1931
16:31:21.817,19826,-1.01,-0.58,0.07,11.68,1932
16:31:21.853,19836,-0.96,-0.55,0.05,11.09,1933
16:31:21.853,19846,-0.86,-0.61,0.01,10.51,1934
16:31:21.854,19856,-0.84,-0.62,-0.02,10.49,1935
16:31:21.855,19866,-0.81,-0.66,-0.04,10.46,1936
16:31:21.894,19876,-0.78,-0.74,-0.04,10.72,1937
16:31:21.898,19886,-0.73,-0.77,-0.08,10.70,1938
16:31:21.898,19896,-0.68,-0.81,-0.12,10.65,1939
16:31:21.898,19906,-0.66,-0.83,-0.10,10.61,1940
16:31:21.936,19916,-0.72,-0.77,-0.05,10.59,1941
16:31:21.936,19926,-0.77,-0.71,-0.03,10.42,1942
16:31:21.939,19936,-0.83,-0.66,-0.04,10.63,1943
16:31:21.944,19946,-0.86,-0.68,-0.07,10.99,1944
16:31:21.977,19956,-0.78,-0.76,-0.05,10.87,1945
16:31:21.978,19966,-0.70,-0.81,-0.08,10.75,1946
16:31:21.980,19976,-0.65,-0.84,-0.13,10.71,1947
16:31:21.982,19986,-0.63,-0.83,-0.13,10.50,1948
16:31:21.991,19996,-0.70,-0.77,-0.13,10.44,1949
16:31:21.995,20006,-0.74,-0.70,-0.08,10.25,1950
16:31:22.010,20016,-0.82,-0.60,-0.06,10.16,1951
16:31:22.014,20026,-0.90,-0.50,-0.09,10.34,1952
16:31:22.027,20036,-0.98,-0.44,-0.09,10.77,1953
16:31:22.034,20046,-1.04,-0.43,-0.07,11.25,1954
16:31:22.051,20056,-1.01,-0.48,-0.04,11.17,1955
16:31:22.054,20066,-0.87,-0.61,-0.01,10.60,1956
16:31:22.069,20076,-0.76,-0.65,-0.03,10.03,1957
16:31:22.074,20086,-0.75,-0.65,-0.01,9.92,1958
16:31:22.084,20096,-0.78,-0.63,0.00,10.03,1959
16:31:22.103,20106,-0.82,-0.63,0.04,10.31,1960
16:31:22.103,20116,-0.81,-0.63,0.03,10.33,1961
16:31:22.123,20126,-0.78,-0.67,0.01,10.26,1962
16:31:22.124,20136,-0.75,-0.67,-0.04,10.05,1963
16:31:22.136,20146,-0.75,-0.69,-0.04,10.16,1964
16:31:22.174,20156,-0.80,-0.68,-0.01,10.49,1965
16:31:22.175,20166,-0.87,-0.63,0.00,10.77,1966
16:31:22.176,20176,-0.88,-0.60,0.00,10.63,1967
16:31:22.180,20186,-0.88,-0.58,0.01,10.57,1968
16:31:22.197,20196,-0.85,-0.59,-0.03,10.33,1969
16:31:22.198,20206,-0.79,-0.65,-0.10,10.24,1970
16:31:22.205,20216,-0.77,-0.68,-0.13,10.37,1971
16:31:22.214,20226,-0.79,-0.66,-0.10,10.33,1972
16:31:22.227,20236,-0.83,-0.62,-0.10,10.37,1973
16:31:22.244,20246,-0.81,-0.62,-0.08,10.24,1974
16:31:22.244,20256,-0.81,-0.71,-0.05,10.78,1975
16:31:22.258,20266,-0.81,-0.70,-0.04,10.68,1976
16:31:22.265,20276,-0.78,-0.69,-0.00,10.44,1977
16:31:22.279,20286,-0.80,-0.64,0.03,10.22,1978
16:31:22.283,20296,-0.79,-0.65,0.04,10.20,1979
16:31:22.304,20306,-0.81,-0.65,0.07,10.46,1980
16:31:22.306,20316,-0.88,-0.60,0.10,10.73,1981
16:31:22.314,20326,-0.98,-0.58,0.08,11.39,1982
16:31:22.323,20336,-0.96,-0.63,0.09,11.48,1983
16:31:22.335,20346,-0.91,-0.73,0.03,11.66,1984
16:31:22.348,20356,-0.95,-0.68,-0.00,11.72,1985
16:31:22.353,20366,-1.02,-0.56,-0.03,11.62,1986
16:31:22.365,20376,-1.06,-0.44,-0.06,11.54,1987
16:31:22.375,20386,-1.21,-0.39,-0.16,12.81,1988
16:31:22.386,20396,-1.19,-0.43,-0.12,12.68,1989
16:31:22.402,20406,-1.12,-0.71,-0.14,13.31,1990
16:31:22.406,20416,-1.15,-0.71,-0.18,13.63,1991
16:31:22.417,20426,-1.24,-0.62,-0.17,14.02,1992
16:31:22.423,20436,-1.33,-0.59,-0.18,14.67,1993
16:31:22.446,20446,-1.38,-0.52,-0.21,14.93,1994
16:31:22.446,20456,-1.41,-0.51,-0.17,15.07,1995
16:31:22.453,20466,-1.33,-0.57,-0.10,14.48,1996
16:31:22.504,20476,-1.11,-0.70,0.00,13.10,1997
16:31:22.504,20486,-0.93,-0.86,0.10,12.72,1998
16:31:22.507,20496,-0.87,-1.04,0.22,13.73,1999
16:31:22.507,20506,-0.76,-1.09,0.33,13.73,2000
16:31:22.509,20516,-0.71,-1.16,0.46,14.40,2001
16:31:22.546,20526,-0.66,-1.21,0.54,14.81,2002
16:31:22.546,20536,-0.54,-1.16,0.62,14.26,2003
16:31:22.549,20546,-0.40,-1.08,0.64,13.18,2004
16:31:22.551,20556,-0.28,-0.99,0.74,12.70,2005
16:31:22.588,20566,-0.09,-0.94,1.03,13.97,2006
16:31:22.591,20576,0.03,-0.90,1.01,13.53,2007
16:31:22.595,20586,0.02,-0.87,0.64,10.82,2008
16:31:22.595,20596,-0.30,-0.73,0.46,9.10,2009
16:31:22.629,20606,-0.50,-0.73,0.50,10.17,2010
16:31:22.629,20616,-0.46,-0.80,0.56,10.80,2011
16:31:22.633,20626,-0.31,-0.85,0.62,10.97,2012
16:31:22.633,20636,-0.13,-0.81,0.63,10.32,2013
16:31:22.635,20646,-0.06,-0.68,0.60,9.06,2014
16:31:22.669,20656,-0.12,-0.55,0.56,7.92,2015
16:31:22.672,20666,-0.17,-0.45,0.57,7.48,2016
16:31:22.672,20676,-0.23,-0.42,0.58,7.51,2017
16:31:22.674,20686,-0.30,-0.51,0.52,7.89,2018
16:31:22.695,20696,-0.36,-0.48,0.52,7.97,2019
16:31:22.698,20706,-0.31,-0.51,0.44,7.42,2020
16:31:22.706,20716,-0.18,-0.65,0.49,8.34,2021
16:31:22.713,20726,-0.15,-0.70,0.49,8.67,2022
16:31:22.724,20736,-0.21,-0.69,0.43,8.45,2023
16:31:22.735,20746,-0.34,-0.65,0.46,8.65,2024
16:31:22.780,20756,-0.39,-0.60,0.50,8.76,2025
16:31:22.782,20766,-0.40,-0.59,0.53,8.88,2026
16:31:22.782,20776,-0.40,-0.57,0.51,8.61,2027
16:31:22.782,20786,-0.45,-0.57,0.49,8.75,2028
16:31:22.801,20796,-0.55,-0.57,0.44,8.99,2029
16:31:22.802,20806,-0.57,-0.59,0.43,9.27,2030
16:31:22.807,20816,-0.58,-0.59,0.43,9.32,2031
16:31:22.814,20826,-0.58,-0.59,0.41,9.25,2032
16:31:22.823,20836,-0.60,-0.60,0.38,9.23,2033
16:31:22.839,20846,-0.62,-0.61,0.37,9.37,2034
16:31:22.851,20856,-0.62,-0.56,0.19,8.58,2035
16:31:22.855,20866,-0.64,-0.56,0.20,8.74,2036
16:31:22.867,20876,-0.74,-0.45,0.26,9.02,2037
16:31:22.874,20886,-0.83,-0.43,0.26,9.72,2038
16:31:22.901,20896,-0.88,-0.36,0.29,9.94,2039
16:31:22.902,20906,-0.88,-0.33,0.30,9.91,2040
16:31:22.903,20916,-0.86,-0.41,0.18,9.76,2041
16:31:22.922,20926,-0.81,-0.49,0.01,9.44,2042
16:31:22.922,20936,-0.72,-0.58,-0.12,9.37,2043
16:31:22.942,20946,-0.66,-0.61,-0.17,9.14,2044
16:31:22.943,20956,-0.63,-0.62,-0.23,9.14,2045
16:31:22.958,20966,-0.63,-0.57,-0.33,9.12,2046
16:31:22.963,20976,-0.65,-0.50,-0.47,9.49,2047
16:31:22.973,20986,-0.67,-0.45,-0.55,9.75,2048
16:31:22.983,20996,-0.71,-0.36,-0.62,10.07,2049
16:31:22.993,21006,-0.74,-0.25,-0.65,10.14,2050
16:31:23.009,21016,-0.77,-0.15,-0.68,10.34,2051
16:31:23.013,21026,-0.78,-0.13,-0.64,10.15,2052
16:31:23.030,21036,-0.73,-0.22,-0.52,9.25,2053
16:31:23.033,21046,-0.68,-0.33,-0.39,8.51,2054
16:31:23.046,21056,-0.63,-0.42,-0.26,8.00,2055
16:31:23.053,21066,-0.59,-0.45,-0.14,7.52,2056
16:31:23.063,21076,-0.73,-0.56,-0.10,9.29,2057
16:31:23.074,21086,-1.06,-0.77,-0.20,13.21,2058
16:31:23.093,21096,-1.18,-0.87,-0.19,14.79,2059
16:31:23.093,21106,-1.29,-0.72,-0.19,14.91,2060
16:31:23.106,21116,-1.31,-0.42,-0.28,14.03,2061
16:31:23.116,21126,-1.50,-0.04,-0.50,15.81,2062
16:31:23.124,21136,-1.96,0.10,-0.36,19.98,2063
16:31:23.135,21146,-2.03,-0.08,-0.26,20.50,2064
16:31:23.146,21156,-1.49,-0.60,-0.21,16.23,2065
16:31:23.154,21166,-0.81,-0.95,-0.21,12.63,2066
16:31:23.165,21176,-0.44,-0.96,-0.32,11.07,2067
16:31:23.180,21186,-0.31,-0.88,-0.05,9.35,2068
16:31:23.183,21196,-0.48,-0.75,0.16,9.04,2069
16:31:23.195,21206,-0.71,-0.64,0.09,9.56,2070
16:31:23.236,21216,-0.76,-0.64,0.21,10.13,2071
16:31:23.241,21226,-0.80,-0.73,0.39,11.52,2072
16:31:23.241,21236,-1.08,-0.65,0.37,13.09,2073
16:31:23.242,21246,-1.21,-0.42,0.34,13.26,2074
16:31:23.269,21256,-1.05,-0.27,0.26,11.12,2075
16:31:23.273,21266,-0.76,-0.55,0.24,9.68,2076
16:31:23.273,21276,-0.68,-0.83,0.12,10.82,2077
16:31:23.276,21286,-0.62,-1.00,-0.01,11.74,2078
16:31:23.303,21296,-0.56,-1.02,-0.05,11.61,2079
16:31:23.306,21306,-0.54,-1.05,-0.10,11.82,2080
16:31:23.309,21316,-0.55,-0.97,-0.06,11.19,2081
16:31:23.345,21326,-0.65,-0.88,-0.01,10.96,2082
16:31:23.349,21336,-0.69,-0.86,-0.02,11.01,2083
16:31:23.349,21346,-0.71,-0.84,0.00,11.01,2084
16:31:23.352,21356,-0.76,-0.80,-0.01,11.04,2085
16:31:23.386,21366,-0.84,-0.71,-0.03,10.95,2086
16:31:23.390,21376,-0.93,-0.60,-0.01,11.00,2087
16:31:23.418,21386,-0.95,-0.52,0.00,10.82,2088
16:31:23.419,21396,-0.91,-0.52,0.01,10.47,2089
16:31:23.447,21406,-0.86,-0.57,-0.05,10.31,2090
16:31:23.447,21416,-0.82,-0.63,-0.08,10.33,2091
16:31:23.451,21426,-0.80,-0.68,-0.08,10.50,2092
16:31:23.451,21436,-0.77,-0.72,-0.06,10.56,2093
16:31:23.451,21446,-0.74,-0.72,-0.05,10.36,2094
16:31:23.453,21456,-0.73,-0.69,-0.06,10.08,2095
16:31:23.453,21466,-0.79,-0.63,-0.10,10.14,2096
16:31:23.466,21476,-0.87,-0.58,-0.09,10.46,2097
16:31:23.482,21486,-0.88,-0.58,-0.07,10.62,2098
16:31:23.484,21496,-0.87,-0.58,-0.07,10.47,2099
16:31:23.499,21506,-0.85,-0.61,-0.07,10.47,2100
16:31:23.505,21516,-0.80,-0.65,-0.08,10.32,2101
16:31:23.516,21526,-0.78,-0.69,-0.08,10.47,2102
16:31:23.528,21536,-0.80,-0.72,-0.09,10.84,2103
16:31:23.534,21546,-0.81,-0.72,-0.06,10.88,2104
16:31:23.548,21556,-0.86,-0.63,-0.07,10.72,2105
16:31:23.554,21566,-0.89,-0.53,-0.05,10.41,2106
16:31:23.568,21576,-0.90,-0.48,0.01,10.21,2107
16:31:23.573,21586,-0.89,-0.49,0.03,10.17,2108
16:31:23.589,21596,-0.87,-0.48,0.02,9.94,2109
16:31:23.594,21606,-0.87,-0.56,-0.02,10.33,2110
16:31:23.611,21616,-0.85,-0.63,-0.01,10.57,2111
16:31:23.614,21626,-0.78,-0.73,-0.02,10.67,2112
16:31:23.626,21636,-0.66,-0.83,-0.01,10.56,2113
16:31:23.634,21646,-0.61,-0.82,-0.03,10.23,2114
16:31:23.645,21656,-0.64,-0.74,-0.01,9.83,2115
16:31:23.655,21666,-0.75,-0.66,0.07,10.02,2116
16:31:23.665,21676,-0.83,-0.61,0.05,10.34,2117
16:31:23.674,21686,-0.81,-0.56,0.08,9.85,2118
16:31:23.683,21696,-0.77,-0.61,0.06,9.82,2119
16:31:23.694,21706,-0.70,-0.68,0.03,9.77,2120
16:31:23.708,21716,-0.69,-0.73,0.01,10.07,2121
16:31:23.717,21726,-0.75,-0.74,0.05,10.59,2122
16:31:23.727,21736,-0.78,-0.74,0.09,10.82,2123
16:31:23.737,21746,-0.76,-0.77,0.14,10.91,2124
16:31:23.743,21756,-0.81,-0.72,0.13,10.91,2125
16:31:23.754,21766,-0.84,-0.64,0.11,10.62,2126
16:31:23.763,21776,-0.83,-0.64,0.10,10.54,2127
16:31:23.775,21786,-0.80,-0.66,0.05,10.34,2128
16:31:23.790,21796,-0.80,-0.67,0.03,10.39,2129
16:31:23.794,21806,-0.82,-0.68,-0.00,10.66,2130
16:31:23.803,21816,-0.83,-0.70,-0.04,10.85,2131
16:31:23.815,21826,-0.86,-0.70,-0.11,11.14,2132
16:31:23.823,21836,-0.91,-0.71,-0.13,11.61,2133
16:31:23.840,21846,-1.01,-0.65,-0.15,12.10,2134
16:31:23.843,21856,-1.08,-0.55,-0.18,12.23,2135
16:31:23.862,21866,-1.13,-0.47,-0.21,12.39,2136
16:31:23.863,21876,-1.17,-0.48,-0.21,12.85,2137
16:31:23.874,21886,-1.25,-0.54,-0.17,13.67,2138
16:31:23.895,21896,-1.34,-0.50,-0.18,14.45,2139
16:31:23.898,21906,-1.41,-0.48,-0.17,14.97,2140
16:31:23.906,21916,-1.46,-0.49,-0.21,15.58,2141
16:31:23.959,21926,-1.50,-0.51,-0.36,16.28,2142
16:31:23.960,21936,-1.46,-0.59,-0.41,16.28,2143
16:31:23.961,21946,-1.30,-0.72,-0.29,15.17,2144
16:31:23.964,21956,-1.14,-0.89,-0.07,14.46,2145
16:31:23.964,21966,-0.99,-1.00,0.11,14.13,2146
16:31:24.000,21976,-0.94,-1.11,0.27,14.81,2147
16:31:24.001,21986,-0.84,-1.13,0.35,14.54,2148
16:31:24.002,21996,-0.83,-1.19,0.47,15.23,2149
16:31:24.003,22006,-0.79,-1.13,0.58,14.98,2150
16:31:24.005,22016,-0.57,-1.15,0.94,15.92,2151
16:31:24.041,22026,-0.59,-1.04,0.72,14.00,2152
16:31:24.041,22036,-0.40,-0.96,0.84,13.35,2153
16:31:24.043,22046,-0.13,-0.92,1.06,14.09,2154
16:31:24.044,22056,0.07,-0.90,1.02,13.65,2155
16:31:24.084,22066,0.03,-0.84,0.77,11.45,2156
16:31:24.084,22076,-0.29,-0.69,0.46,8.76,2157
16:31:24.121,22086,-0.50,-0.80,0.51,10.73,2158
16:31:24.121,22096,-0.44,-0.89,0.57,11.43,2159
16:31:24.123,22106,-0.30,-0.88,0.60,11.08,2160
16:31:24.125,22116,-0.17,-0.81,0.59,10.14,2161
16:31:24.125,22126,-0.04,-0.69,0.57,8.97,2162
16:31:24.146,22136,-0.02,-0.64,0.64,9.08,2163
16:31:24.146,22146,-0.07,-0.55,0.67,8.66,2164
16:31:24.149,22156,-0.15,-0.46,0.60,7.67,2165
16:31:24.153,22166,-0.20,-0.44,0.61,7.78,2166
16:31:24.183,22176,-0.22,-0.42,0.66,8.11,2167
16:31:24.185,22186,-0.26,-0.40,0.65,8.05,2168
16:31:24.185,22196,-0.23,-0.50,0.58,8.00,2169
16:31:24.193,22206,-0.15,-0.53,0.56,7.87,2170
16:31:24.204,22216,-0.12,-0.56,0.53,7.77,2171
16:31:24.221,22226,-0.13,-0.63,0.43,7.73,2172
16:31:24.223,22236,-0.26,-0.66,0.43,8.29,2173
16:31:24.240,22246,-0.37,-0.62,0.49,8.70,2174
16:31:24.244,22256,-0.38,-0.61,0.54,8.98,2175
16:31:24.258,22266,-0.39,-0.57,0.55,8.83,2176
16:31:24.267,22276,-0.41,-0.52,0.57,8.77,2177
16:31:24.276,22286,-0.45,-0.52,0.56,8.84,2178
16:31:24.283,22296,-0.47,-0.56,0.54,9.09,2179
16:31:24.299,22306,-0.50,-0.60,0.51,9.30,2180
16:31:24.303,22316,-0.51,-0.60,0.46,9.13,2181
16:31:24.317,22326,-0.54,-0.59,0.39,8.91,2182
16:31:24.323,22336,-0.52,-0.53,0.15,7.58,2183
16:31:24.338,22346,-0.54,-0.52,0.21,7.75,2184
16:31:24.344,22356,-0.69,-0.49,0.26,8.90,2185
16:31:24.354,22366,-0.85,-0.44,0.26,9.91,2186
16:31:24.364,22376,-0.91,-0.38,0.30,10.33,2187
16:31:24.374,22386,-0.91,-0.44,0.37,10.80,2188
16:31:24.383,22396,-0.82,-0.55,0.29,10.26,2189
16:31:24.401,22406,-0.80,-0.61,0.04,10.04,2190
16:31:24.404,22416,-0.75,-0.52,-0.17,9.31,2191
16:31:24.416,22426,-0.75,-0.44,-0.31,9.24,2192
16:31:24.424,22436,-0.77,-0.42,-0.46,9.86,2193
16:31:24.432,22446,-0.75,-0.38,-0.64,10.55,2194
16:31:24.445,22456,-0.72,-0.24,-0.91,11.81,2195
16:31:24.461,22466,-0.65,-0.08,-1.05,12.33,2196
16:31:24.465,22476,-0.61,-0.03,-1.02,11.91,2197
16:31:24.478,22486,-0.61,-0.13,-0.71,9.46,2198
16:31:24.483,22496,-0.59,-0.30,-0.43,7.87,2199
16:31:24.493,22506,-0.55,-0.43,-0.24,7.42,2200
16:31:24.509,22516,-0.49,-0.51,-0.04,7.10,2201
16:31:24.515,22526,-0.50,-0.56,0.13,7.62,2202
16:31:24.529,22536,-0.85,-0.77,0.05,11.48,2203
16:31:24.533,22546,-1.11,-0.92,0.05,14.46,2204
16:31:24.544,22556,-1.36,-0.95,0.02,16.59,2205
16:31:24.559,22566,-1.41,-0.65,-0.22,15.67,2206
16:31:24.565,22576,-1.36,-0.24,-0.34,14.19,2207
16:31:24.575,22586,-1.72,-0.03,-0.54,17.97,2208
16:31:24.586,22596,-2.13,0.17,-0.44,21.76,2209
16:31:24.594,22606,-1.97,0.10,-0.18,19.80,2210
16:31:24.607,22616,-1.20,-0.64,-0.05,13.57,2211
16:31:24.615,22626,-0.76,-0.78,-0.26,11.18,2212
16:31:24.624,22636,-0.46,-0.72,-0.11,8.62,2213
16:31:24.642,22646,-0.50,-0.71,-0.05,8.70,2214
16:31:24.645,22656,-0.51,-0.78,0.05,9.37,2215
16:31:24.658,22666,-0.44,-0.92,0.24,10.50,2216
16:31:24.668,22676,-0.53,-0.97,0.30,11.45,2217
16:31:24.676,22686,-0.76,-0.73,0.27,10.90,2218
16:31:24.733,22696,-0.90,-0.57,0.17,10.78,2219
16:31:24.733,22706,-0.94,-0.63,0.17,11.41,2220
16:31:24.734,22716,-0.86,-0.75,0.12,11.45,2221
16:31:24.734,22726,-0.72,-0.83,0.05,10.99,2222
16:31:24.771,22736,-0.58,-0.89,0.04,10.66,2223
16:31:24.771,22746,-0.51,-0.94,-0.01,10.70,2224
16:31:24.814,22756,-0.51,-0.93,-0.02,10.67,2225
16:31:24.816,22766,-0.61,-0.89,0.02,10.81,2226
16:31:24.816,22776,-0.71,-0.87,0.14,11.32,2227
16:31:24.816,22786,-0.77,-0.78,0.19,11.16,2228
16:31:24.817,22796,-0.82,-0.70,0.15,10.88,2229
16:31:24.818,22806,-0.86,-0.60,0.16,10.63,2230
16:31:24.850,22816,-0.95,-0.52,0.16,10.91,2231
16:31:24.850,22826,-0.98,-0.47,0.10,10.90,2232
16:31:24.853,22836,-0.97,-0.46,0.07,10.76,2233
16:31:24.856,22846,-0.94,-0.49,0.04,10.61,2234
16:31:24.856,22856,-0.88,-0.58,0.05,10.58,2235
16:31:24.856,22866,-0.83,-0.64,0.06,10.53,2236
16:31:24.892,22876,-0.78,-0.69,0.06,10.43,2237
16:31:24.895,22886,-0.71,-0.72,0.07,10.15,2238
16:31:24.895,22896,-0.69,-0.74,0.04,10.15,2239
16:31:24.896,22906,-0.73,-0.75,0.01,10.42,2240
16:31:24.919,22916,-0.81,-0.69,0.01,10.69,2241
16:31:24.919,22926,-0.87,-0.65,0.03,10.87,2242
16:31:24.924,22936,-0.88,-0.59,0.05,10.61,2243
16:31:24.934,22946,-0.86,-0.59,0.08,10.44,2244
16:31:24.944,22956,-0.79,-0.64,0.07,10.21,2245
16:31:24.954,22966,-0.75,-0.70,0.02,10.25,2246
16:31:24.964,22976,-0.70,-0.76,0.01,10.32,2247
16:31:24.982,22986,-0.74,-0.76,-0.00,10.61,2248
16:31:24.984,22996,-0.79,-0.73,0.01,10.75,2249
16:31:24.999,23006,-0.81,-0.68,0.05,10.57,2250
16:31:25.003,23016,-0.82,-0.66,0.04,10.57,2251
16:31:25.014,23026,-0.77,-0.70,0.09,10.40,2252
16:31:25.026,23036,-0.76,-0.72,0.07,10.49,2253
16:31:25.041,23046,-0.77,-0.68,0.05,10.24,2254
16:31:25.042,23056,-0.80,-0.66,0.01,10.33,2255
16:31:25.058,23066,-0.78,-0.67,0.00,10.30,2256
16:31:25.068,23076,-0.76,-0.69,-0.03,10.24,2257
16:31:25.074,23086,-0.74,-0.69,-0.06,10.18,2258
16:31:25.084,23096,-0.77,-0.67,-0.07,10.24,2259
16:31:25.100,23106,-0.81,-0.65,-0.07,10.38,2260
16:31:25.101,23116,-0.83,-0.64,-0.08,10.53,2261
16:31:25.117,23126,-0.81,-0.65,-0.08,10.41,2262
16:31:25.127,23136,-0.80,-0.64,-0.09,10.30,2263
16:31:25.136,23146,-0.82,-0.64,-0.09,10.40,2264
16:31:25.147,23156,-0.86,-0.64,-0.11,10.75,2265
16:31:25.156,23166,-0.90,-0.61,-0.10,10.88,2266
16:31:25.163,23176,-0.92,-0.58,-0.07,10.89,2267
16:31:25.173,23186,-0.89,-0.59,-0.07,10.67,2268
16:31:25.185,23196,-0.86,-0.59,-0.04,10.43,2269
16:31:25.196,23206,-0.88,-0.60,-0.06,10.64,2270
16:31:25.205,23216,-0.85,-0.66,-0.07,10.76,2271
16:31:25.214,23226,-0.84,-0.73,-0.08,11.12,2272
16:31:25.230,23236,-0.87,-0.76,-0.09,11.55,2273
16:31:25.233,23246,-0.93,-0.71,-0.09,11.80,2274
16:31:25.245,23256,-0.97,-0.67,-0.11,11.82,2275
16:31:25.253,23266,-1.01,-0.61,-0.13,11.81,2276
16:31:25.264,23276,-1.03,-0.59,-0.14,11.96,2277
16:31:25.278,23286,-1.09,-0.59,-0.14,12.50,2278
16:31:25.283,23296,-1.18,-0.52,-0.18,13.02,2279
16:31:25.302,23306,-1.24,-0.53,-0.15,13.60,2280
16:31:25.302,23316,-1.31,-0.51,-0.11,14.07,2281
16:31:25.315,23326,-1.44,-0.48,-0.20,15.29,2282
16:31:25.323,23336,-1.52,-0.44,-0.33,16.16,2283
16:31:25.335,23346,-1.50,-0.45,-0.26,15.93,2284
16:31:25.347,23356,-1.36,-0.53,-0.20,14.78,2285
16:31:25.387,23366,-1.12,-0.73,-0.07,13.39,2286
16:31:25.387,23376,-0.92,-0.93,0.13,13.18,2287
16:31:25.388,23386,-0.87,-1.11,0.24,14.36,2288
16:31:25.389,23396,-0.80,-1.18,0.33,14.61,2289
16:31:25.394,23406,-0.76,-1.23,0.44,15.10,2290
16:31:25.404,23416,-0.67,-1.17,0.51,14.44,2291
16:31:25.414,23426,-0.66,-1.04,0.54,13.40,2292
16:31:25.456,23436,-0.48,-0.92,0.86,13.51,2293
16:31:25.457,23446,-0.29,-0.86,1.01,13.60,2294
16:31:25.486,23456,-0.20,-0.84,1.08,13.87,2295
16:31:25.488,23466,-0.20,-0.82,0.90,12.30,2296
16:31:25.488,23476,-0.41,-0.65,0.58,9.64,2297
16:31:25.526,23486,-0.57,-0.63,0.50,9.83,2298
16:31:25.527,23496,-0.64,-0.73,0.65,11.69,2299
16:31:25.528,23506,-0.48,-0.78,0.65,11.23,2300
16:31:25.529,23516,-0.30,-0.77,0.65,10.56,2301
16:31:25.570,23526,-0.14,-0.73,0.64,9.80,2302
16:31:25.570,23536,-0.08,-0.67,0.62,9.15,2303
16:31:25.570,23546,-0.13,-0.58,0.61,8.51,2304
16:31:25.571,23556,-0.19,-0.51,0.58,7.97,2305
16:31:25.572,23566,-0.24,-0.53,0.54,7.96,2306
16:31:25.605,23576,-0.23,-0.50,0.62,8.26,2307
16:31:25.607,23586,-0.28,-0.48,0.60,8.20,2308
16:31:25.609,23596,-0.22,-0.54,0.61,8.42,2309
16:31:25.609,23606,-0.13,-0.56,0.63,8.53,2310
16:31:25.609,23616,-0.08,-0.57,0.60,8.34,2311
16:31:25.647,23626,-0.19,-0.55,0.54,7.92,2312
16:31:25.647,23636,-0.32,-0.48,0.51,7.69,2313
16:31:25.648,23646,-0.42,-0.44,0.54,8.14,2314
16:31:25.649,23656,-0.50,-0.43,0.57,8.72,2315
16:31:25.686,23666,-0.56,-0.39,0.57,8.94,2316
16:31:25.687,23676,-0.59,-0.38,0.59,9.10,2317
16:31:25.688,23686,-0.56,-0.49,0.61,9.65,2318
16:31:25.689,23696,-0.52,-0.60,0.60,9.92,2319
16:31:25.694,23706,-0.45,-0.69,0.61,10.26,2320
16:31:25.708,23716,-0.45,-0.77,0.55,10.49,2321
16:31:25.713,23726,-0.44,-0.73,0.47,9.72,2322
16:31:25.725,23736,-0.47,-0.66,0.30,8.60,2323
16:31:25.733,23746,-0.52,-0.60,0.24,8.29,2324
16:31:25.750,23756,-0.62,-0.51,0.17,8.15,2325
16:31:25.753,23766,-0.69,-0.42,0.19,8.29,2326
16:31:25.764,23776,-0.78,-0.35,0.24,8.84,2327
16:31:25.781,23786,-0.87,-0.33,0.25,9.62,2328
16:31:25.782,23796,-0.83,-0.34,0.25,9.31,2329
16:31:25.799,23806,-0.84,-0.40,0.16,9.43,2330
16:31:25.804,23816,-0.82,-0.45,0.09,9.38,2331
16:31:25.819,23826,-0.75,-0.39,-0.09,8.49,2332
16:31:25.824,23836,-0.69,-0.35,-0.27,8.16,2333
16:31:25.840,23846,-0.65,-0.34,-0.41,8.38,2334
16:31:25.844,23856,-0.61,-0.34,-0.53,8.74,2335
16:31:25.859,23866,-0.57,-0.32,-0.64,9.17,2336
16:31:25.864,23876,-0.55,-0.30,-0.64,8.94,2337
16:31:25.873,23886,-0.53,-0.30,-0.50,7.90,2338
16:31:25.891,23896,-0.52,-0.33,-0.37,7.20,2339
16:31:25.893,23906,-0.61,-0.41,-0.26,7.85,2340
16:31:25.907,23916,-0.80,-0.60,-0.18,10.13,2341
16:31:25.917,23926,-0.79,-0.74,-0.20,10.99,2342
16:31:25.923,23936,-1.00,-0.74,-0.20,12.63,2343
16:31:25.934,23946,-1.54,-0.68,-0.22,16.94,2344
16:31:25.945,23956,-1.99,-0.43,-0.21,20.49,2345
16:31:25.953,23966,-1.99,-0.09,-0.30,20.18,2346
16:31:25.967,23976,-1.90,0.26,-0.50,19.82,2347
16:31:25.974,23986,-1.45,0.04,-0.52,15.40,2348
16:31:25.988,23996,-0.94,-0.63,-0.02,11.32,2349
16:31:25.993,24006,-0.70,-0.98,0.01,12.08,2350
16:31:26.003,24016,-0.52,-0.95,0.05,10.87,2351
16:31:26.021,24026,-0.51,-0.75,0.12,9.13,2352
16:31:26.022,24036,-0.69,-0.60,0.08,9.16,2353
16:31:26.033,24046,-0.65,-0.70,0.16,9.69,2354
16:31:26.044,24056,-0.61,-0.86,0.37,11.13,2355
16:31:26.053,24066,-0.80,-0.88,0.30,12.27,2356
16:31:26.063,24076,-0.90,-0.72,0.28,11.89,2357
16:31:26.080,24086,-0.82,-0.64,0.18,10.59,2358
16:31:26.084,24096,-0.76,-0.73,0.13,10.62,2359
16:31:26.098,24106,-0.71,-0.79,0.06,10.65,2360
16:31:26.104,24116,-0.73,-0.81,0.02,10.89,2361
16:31:26.115,24126,-0.73,-0.82,-0.02,10.99,2362
16:31:26.148,24136,-0.66,-0.88,-0.02,10.95,2363
16:31:26.149,24146,-0.68,-0.87,-0.01,11.03,2364
16:31:26.151,24156,-0.79,-0.69,0.11,10.54,2365
16:31:26.186,24166,-0.86,-0.65,0.14,10.91,2366
16:31:26.189,24176,-0.89,-0.64,0.13,11.03,2367
16:31:26.246,24186,-0.90,-0.65,0.10,11.12,2368
16:31:26.282,24196,-0.89,-0.64,0.11,11.02,2369
16:31:26.282,24206,-0.86,-0.64,0.10,10.80,2370
16:31:26.335,24216,-0.82,-0.65,0.09,10.51,2371
16:31:26.335,24226,-0.77,-0.68,0.07,10.24,2372
16:31:26.338,24236,-0.75,-0.72,0.04,10.41,2373
16:31:26.343,24246,-0.76,-0.73,0.00,10.57,2374
16:31:26.352,24256,-0.76,-0.75,-0.03,10.69,2375
16:31:26.353,24266,-0.75,-0.75,-0.03,10.60,2376
16:31:26.356,24276,-0.75,-0.74,-0.03,10.51,2377
16:31:26.356,24286,-0.78,-0.68,-0.03,10.35,2378
16:31:26.356,24296,-0.81,-0.64,-0.02,10.35,2379
16:31:26.356,24306,-0.84,-0.62,0.00,10.43,2380
16:31:26.356,24316,-0.82,-0.64,0.00,10.41,2381
16:31:26.356,24326,-0.78,-0.68,-0.04,10.36,2382
16:31:26.356,24336,-0.77,-0.72,-0.08,10.55,2383
16:31:26.356,24346,-0.76,-0.75,-0.10,10.73,2384
16:31:26.356,24356,-0.76,-0.73,-0.10,10.63,2385
16:31:26.357,24366,-0.80,-0.68,-0.10,10.56,2386
16:31:26.366,24376,-0.83,-0.65,-0.08,10.55,2387
16:31:26.373,24386,-0.86,-0.59,-0.06,10.49,2388
16:31:26.386,24396,-0.88,-0.54,-0.06,10.37,2389
16:31:26.396,24406,-0.89,-0.54,-0.06,10.46,2390
16:31:26.409,24416,-0.88,-0.58,-0.08,10.52,2391
16:31:26.414,24426,-0.85,-0.63,-0.14,10.66,2392
16:31:26.430,24436,-0.82,-0.66,-0.15,10.60,2393
16:31:26.433,24446,-0.80,-0.65,-0.17,10.47,2394
16:31:26.443,24456,-0.80,-0.63,-0.20,10.43,2395
16:31:26.456,24466,-0.81,-0.60,-0.20,10.30,2396
16:31:26.466,24476,-0.80,-0.60,-0.18,10.20,2397
16:31:26.473,24486,-0.79,-0.61,-0.14,10.09,2398
16:31:26.483,24496,-0.80,-0.64,-0.12,10.27,2399
16:31:26.493,24506,-0.80,-0.68,-0.08,10.54,2400
16:31:26.504,24516,-0.80,-0.70,-0.07,10.65,2401
16:31:26.515,24526,-0.78,-0.71,-0.05,10.52,2402
16:31:26.523,24536,-0.75,-0.72,-0.05,10.41,2403
16:31:26.535,24546,-0.77,-0.67,-0.04,10.22,2404
16:31:26.547,24556,-0.79,-0.64,-0.01,10.18,2405
16:31:26.556,24566,-0.88,-0.61,0.00,10.70,2406
16:31:26.565,24576,-0.94,-0.55,-0.01,10.90,2407
16:31:26.575,24586,-0.99,-0.54,-0.00,11.24,2408
16:31:26.584,24596,-0.92,-0.60,-0.03,11.04,2409
16:31:26.594,24606,-0.83,-0.67,-0.10,10.71,2410
16:31:26.605,24616,-0.83,-0.69,-0.10,10.78,2411
16:31:26.614,24626,-0.88,-0.67,-0.08,11.11,2412
16:31:26.624,24636,-0.95,-0.65,-0.08,11.49,2413
16:31:26.642,24646,-0.96,-0.65,-0.09,11.68,2414
16:31:26.643,24656,-1.00,-0.62,-0.12,11.82,2415
16:31:26.665,24666,-1.04,-0.56,-0.14,11.93,2416
16:31:26.704,24676,-1.10,-0.48,-0.19,12.12,2417
16:31:26.712,24686,-1.14,-0.40,-0.23,12.32,2418
16:31:26.714,24696,-1.20,-0.39,-0.20,12.81,2419
16:31:26.716,24706,-1.30,-0.43,-0.22,13.91,2420
16:31:26.742,24716,-1.44,-0.47,-0.29,15.38,2421
16:31:26.744,24726,-1.59,-0.50,-0.40,17.12,2422
16:31:26.746,24736,-1.60,-0.50,-0.43,17.34,2423
16:31:26.747,24746,-1.39,-0.63,-0.33,15.61,2424
16:31:26.747,24756,-1.21,-0.84,-0.22,14.86,2425
16:31:26.756,24766,-1.01,-1.04,-0.01,14.52,2426
16:31:26.767,24776,-0.87,-1.21,0.19,15.02,2427
16:31:26.775,24786,-0.80,-1.29,0.33,15.56,2428
16:31:26.784,24796,-0.73,-1.36,0.39,15.89,2429
16:31:26.795,24806,-0.65,-1.33,0.62,16.07,2430
16:31:26.811,24816,-0.66,-1.23,0.70,15.58,2431
16:31:26.814,24826,-0.51,-1.16,0.91,15.59,2432
16:31:26.824,24836,-0.52,-0.98,0.77,13.49,2433
16:31:26.838,24846,-0.31,-0.97,1.08,14.81,2434
16:31:26.844,24856,-0.04,-0.93,1.44,17.16,2435
16:31:26.861,24866,-0.02,-0.76,1.10,13.34,2436
16:31:26.864,24876,-0.22,-0.53,0.51,7.65,2437
16:31:26.908,24886,-0.42,-0.53,0.57,8.89,2438
16:31:26.910,24896,-0.57,-0.69,0.66,11.12,2439
16:31:26.910,24906,-0.45,-0.80,0.66,11.33,2440
16:31:26.912,24916,-0.22,-0.87,0.63,10.97,2441
16:31:26.947,24926,0.04,-0.81,0.61,10.16,2442
16:31:26.948,24936,0.17,-0.73,0.61,9.66,2443
16:31:26.952,24946,0.09,-0.63,0.61,8.79,2444
16:31:26.990,24956,-0.04,-0.48,0.67,8.30,2445
16:31:26.990,24966,-0.18,-0.38,0.67,7.89,2446
16:31:26.990,24976,-0.27,-0.35,0.61,7.49,2447
16:31:26.990,24986,-0.30,-0.30,0.60,7.33,2448
16:31:27.030,24996,-0.31,-0.32,0.64,7.77,2449
16:31:27.031,25006,-0.28,-0.36,0.73,8.64,2450
16:31:27.032,25016,-0.29,-0.43,0.57,7.66,2451
16:31:27.073,25026,-0.29,-0.44,0.41,6.68,2452
16:31:27.080,25036,-0.41,-0.46,0.38,7.21,2453
16:31:27.080,25046,-0.45,-0.53,0.54,8.80,2454
16:31:27.080,25056,-0.43,-0.52,0.59,9.01,2455
16:31:27.080,25066,-0.43,-0.49,0.57,8.66,2456
16:31:27.098,25076,-0.49,-0.52,0.57,9.14,2457
16:31:27.098,25086,-0.54,-0.58,0.59,9.83,2458
16:31:27.101,25096,-0.57,-0.63,0.57,10.18,2459
16:31:27.101,25106,-0.48,-0.59,0.33,8.24,2460
16:31:27.102,25116,-0.42,-0.58,0.16,7.40,2461
16:31:27.120,25126,-0.45,-0.66,0.24,8.36,2462
16:31:27.122,25136,-0.62,-0.66,0.15,9.11,2463
16:31:27.132,25146,-0.70,-0.56,0.14,9.06,2464
16:31:27.148,25156,-0.76,-0.48,0.19,9.19,2465
16:31:27.154,25166,-0.81,-0.45,0.25,9.63,2466
16:31:27.168,25176,-0.83,-0.43,0.23,9.65,2467
16:31:27.176,25186,-0.81,-0.44,0.16,9.36,2468
16:31:27.186,25196,-0.74,-0.46,0.04,8.71,2469
16:31:27.198,25206,-0.61,-0.42,-0.09,7.44,2470
16:31:27.207,25216,-0.63,-0.38,-0.28,7.86,2471
16:31:27.216,25226,-0.73,-0.29,-0.38,8.71,2472
16:31:27.225,25236,-0.79,-0.25,-0.48,9.56,2473
16:31:27.236,25246,-0.76,-0.24,-0.56,9.75,2474
16:31:27.244,25256,-0.70,-0.23,-0.59,9.41,2475
16:31:27.258,25266,-0.66,-0.30,-0.54,9.04,2476
16:31:27.263,25276,-0.62,-0.37,-0.42,8.32,2477
16:31:27.280,25286,-0.59,-0.45,-0.29,8.00,2478
16:31:27.282,25296,-0.79,-0.57,-0.26,10.08,2479
16:31:27.294,25306,-0.76,-0.68,-0.18,10.37,2480
16:31:27.305,25316,-0.78,-0.75,-0.23,11.08,2481
16:31:27.315,25326,-0.99,-0.73,-0.31,12.70,2482
16:31:27.323,25336,-1.50,-0.70,-0.34,16.90,2483
16:31:27.336,25346,-1.89,-0.52,-0.36,19.92,2484
16:31:27.343,25356,-1.94,-0.10,-0.49,20.05,2485
16:31:27.354,25366,-1.79,0.16,-0.47,18.54,2486
16:31:27.366,25376,-1.47,0.01,-0.24,14.95,2487
16:31:27.405,25386,-0.98,-0.58,-0.03,11.38,2488
16:31:27.409,25396,-0.68,-0.70,0.00,9.71,2489
16:31:27.409,25406,-0.55,-0.78,-0.03,9.54,2490
16:31:27.410,25416,-0.44,-0.94,0.21,10.61,2491
16:31:27.413,25426,-0.37,-1.08,0.41,12.09,2492
16:31:27.423,25436,-0.38,-1.17,0.30,12.63,2493
16:31:27.433,25446,-0.37,-0.96,0.32,10.79,2494
16:31:27.443,25456,-0.54,-0.76,0.35,9.99,2495
16:31:27.452,25466,-0.90,-0.56,0.35,11.15,2496
16:31:27.462,25476,-1.27,-0.49,0.25,13.86,2497
16:31:27.474,25486,-1.33,-0.45,0.22,14.21,2498
16:31:27.482,25496,-1.05,-0.53,0.15,11.85,2499
16:31:27.493,25506,-0.73,-0.63,0.05,9.71,2500
16:31:27.513,25516,-0.59,-0.74,-0.03,9.51,2501
16:31:27.514,25526,-0.57,-0.85,-0.04,10.21,2502
16:31:27.530,25536,-0.63,-0.86,-0.04,10.69,2503
16:31:27.535,25546,-0.70,-0.80,0.02,10.63,2504
16:31:27.550,25556,-0.75,-0.79,0.04,10.91,2505
16:31:27.555,25566,-0.78,-0.78,0.05,11.09,2506
16:31:27.565,25576,-0.84,-0.73,0.03,11.11,2507
16:31:27.578,25586,-0.91,-0.60,0.05,10.89,2508
16:31:27.583,25596,-0.98,-0.48,0.06,10.97,2509
16:31:27.601,25606,-0.95,-0.46,0.05,10.54,2510
16:31:27.604,25616,-0.84,-0.56,-0.00,10.13,2511
16:31:27.623,25626,-0.80,-0.65,-0.02,10.34,2512
16:31:27.624,25636,-0.78,-0.74,-0.04,10.77,2513
16:31:27.639,25646,-0.72,-0.79,-0.02,10.73,2514
16:31:27.643,25656,-0.76,-0.75,-0.01,10.69,2515
16:31:27.681,25666,-0.77,-0.72,0.04,10.56,2516
16:31:27.681,25676,-0.75,-0.68,0.06,10.16,2517
16:31:27.682,25686,-0.78,-0.64,0.03,10.05,2518
16:31:27.684,25696,-0.81,-0.61,-0.01,10.14,2519
16:31:27.722,25706,-0.86,-0.63,-0.03,10.65,2520
16:31:27.724,25716,-0.85,-0.68,-0.05,10.88,2521
16:31:27.726,25726,-0.79,-0.70,-0.04,10.52,2522
16:31:27.726,25736,-0.74,-0.71,-0.02,10.20,2523
16:31:27.764,25746,-0.72,-0.69,-0.03,9.98,2524
16:31:27.764,25756,-0.75,-0.64,-0.03,9.84,2525
16:31:27.767,25766,-0.82,-0.60,-0.03,10.12,2526
16:31:27.769,25776,-0.88,-0.59,-0.06,10.61,2527
16:31:27.806,25786,-0.88,-0.61,-0.05,10.74,2528
16:31:27.807,25796,-0.85,-0.64,-0.04,10.64,2529
16:31:27.808,25806,-0.81,-0.65,-0.01,10.38,2530
16:31:27.809,25816,-0.80,-0.64,-0.02,10.26,2531
16:31:27.847,25826,-0.80,-0.64,-0.02,10.19,2532
16:31:27.848,25836,-0.82,-0.62,-0.05,10.31,2533
16:31:27.849,25846,-0.88,-0.59,-0.08,10.62,2534
16:31:27.849,25856,-0.90,-0.57,-0.08,10.69,2535
16:31:27.872,25866,-0.87,-0.61,-0.10,10.69,2536
16:31:27.873,25876,-0.82,-0.66,-0.11,10.54,2537
16:31:27.874,25886,-0.78,-0.69,-0.13,10.54,2538
16:31:27.883,25896,-0.78,-0.68,-0.12,10.41,2539
16:31:27.895,25906,-0.80,-0.66,-0.11,10.45,2540
16:31:27.903,25916,-0.83,-0.66,-0.09,10.64,2541
16:31:27.918,25926,-0.83,-0.62,-0.08,10.37,2542
16:31:27.924,25936,-0.87,-0.61,-0.09,10.70,2543
16:31:27.939,25946,-0.93,-0.56,-0.06,10.83,2544
16:31:27.942,25956,-0.95,-0.55,-0.04,10.97,2545
16:31:27.969,25966,-0.89,-0.63,-0.04,10.87,2546
16:31:27.969,25976,-0.85,-0.65,-0.07,10.77,2547
16:31:27.985,25986,-0.86,-0.71,-0.06,11.16,2548
16:31:27.992,25996,-0.90,-0.76,-0.04,11.81,2549
16:31:27.993,26006,-0.99,-0.72,-0.04,12.29,2550
16:31:28.020,26016,-1.05,-0.64,-0.08,12.32,2551
16:31:28.022,26026,-1.06,-0.56,-0.13,12.11,2552
16:31:28.024,26036,-1.10,-0.52,-0.15,12.26,2553
16:31:28.044,26046,-1.20,-0.48,-0.16,12.98,2554
16:31:28.044,26056,-1.30,-0.42,-0.14,13.71,2555
16:31:28.055,26066,-1.39,-0.36,-0.07,14.36,2556
16:31:28.070,26076,-1.60,-0.33,-0.18,16.44,2557
16:31:28.075,26086,-1.78,-0.28,-0.37,18.43,2558
16:31:28.091,26096,-1.63,-0.43,-0.45,17.47,2559
16:31:28.094,26106,-1.25,-0.74,-0.31,14.87,2560
16:31:28.110,26116,-0.98,-1.03,-0.13,14.29,2561
16:31:28.115,26126,-0.82,-1.22,0.07,14.70,2562
16:31:28.126,26136,-0.74,-1.29,0.19,15.04,2563
16:31:28.141,26146,-0.70,-1.33,0.34,15.43,2564
16:31:28.145,26156,-0.74,-1.28,0.50,15.59,2565
16:31:28.156,26166,-0.78,-1.13,0.55,14.80,2566
16:31:28.167,26176,-0.56,-1.02,0.72,13.70,2567
16:31:28.175,26186,-0.57,-0.92,0.82,13.56,2568
16:31:28.186,26196,-0.37,-0.86,1.16,14.91,2569
16:31:28.195,26206,-0.18,-0.82,1.38,16.10,2570
16:31:28.210,26216,-0.37,-0.60,0.93,11.65,2571
16:31:28.214,26226,-0.50,-0.40,0.59,8.75,2572
16:31:28.225,26236,-0.63,-0.48,0.62,10.08,2573
16:31:28.236,26246,-0.61,-0.69,0.73,11.74,2574
16:31:28.247,26256,-0.44,-0.77,0.69,11.22,2575
16:31:28.257,26266,-0.24,-0.83,0.67,10.93,2576
16:31:28.264,26276,-0.07,-0.81,0.66,10.42,2577
16:31:28.281,26286,0.06,-0.75,0.63,9.84,2578
16:31:28.284,26296,0.01,-0.64,0.60,8.80,2579
16:31:28.295,26306,-0.15,-0.56,0.63,8.53,2580
16:31:28.348,26316,-0.26,-0.51,0.69,8.91,2581
16:31:28.348,26326,-0.32,-0.46,0.70,8.97,2582
16:31:28.349,26336,-0.31,-0.44,0.69,8.74,2583
16:31:28.351,26346,-0.28,-0.35,0.68,8.17,2584
16:31:28.352,26356,-0.18,-0.30,0.72,7.96,2585
16:31:28.388,26366,-0.14,-0.32,0.70,7.82,2586
16:31:28.388,26376,-0.21,-0.33,0.66,7.69,2587
16:31:28.389,26386,-0.33,-0.34,0.64,7.98,2588
16:31:28.390,26396,-0.43,-0.35,0.67,8.74,2589
16:31:28.393,26406,-0.49,-0.38,0.69,9.23,2590
16:31:28.429,26416,-0.48,-0.36,0.62,8.58,2591
16:31:28.430,26426,-0.43,-0.35,0.56,7.88,2592
16:31:28.431,26436,-0.43,-0.38,0.59,8.20,2593
16:31:28.434,26446,-0.52,-0.54,0.61,9.66,2594
16:31:28.469,26456,-0.55,-0.64,0.44,9.54,2595
16:31:28.470,26466,-0.44,-0.68,0.21,8.38,2596
16:31:28.471,26476,-0.36,-0.75,0.26,8.72,2597
16:31:28.473,26486,-0.51,-0.80,0.29,9.89,2598
16:31:28.510,26496,-0.63,-0.71,0.31,10.02,2599
16:31:28.511,26506,-0.70,-0.64,0.25,9.84,2600
16:31:28.513,26516,-0.73,-0.56,0.21,9.48,2601
16:31:28.514,26526,-0.76,-0.48,0.18,9.19,2602
16:31:28.526,26536,-0.79,-0.44,0.16,9.20,2603
16:31:28.537,26546,-0.77,-0.36,0.08,8.52,2604
16:31:28.543,26556,-0.74,-0.27,-0.09,7.93,2605
16:31:28.554,26566,-0.75,-0.19,-0.26,8.14,2606
16:31:28.569,26576,-0.74,-0.10,-0.45,8.72,2607
16:31:28.576,26586,-0.81,-0.02,-0.72,10.83,2608
16:31:28.584,26596,-0.78,0.01,-0.86,11.61,2609
16:31:28.597,26606,-0.70,-0.01,-0.85,11.01,2610
16:31:28.603,26616,-0.68,-0.17,-0.67,9.68,2611
16:31:28.613,26626,-0.60,-0.30,-0.48,8.31,2612
16:31:28.623,26636,-0.50,-0.47,-0.27,7.38,2613
16:31:28.637,26646,-0.45,-0.51,-0.12,6.90,2614
16:31:28.643,26656,-0.46,-0.48,0.03,6.65,2615
16:31:28.655,26666,-0.81,-0.60,-0.02,10.08,2616
16:31:28.663,26676,-1.20,-0.76,0.02,14.20,2617
16:31:28.678,26686,-1.45,-1.02,-0.10,17.76,2618
16:31:28.695,26696,-1.75,-0.98,-0.25,20.26,2619
16:31:28.695,26706,-1.76,-0.42,-0.42,18.55,2620
16:31:28.712,26716,-1.59,0.05,-0.76,17.68,2621
16:31:28.712,26726,-1.57,0.24,-0.74,17.55,2622
16:31:28.727,26736,-1.45,-0.14,-0.18,14.71,2623
16:31:28.736,26746,-1.11,-0.58,0.10,12.61,2624
16:31:28.743,26756,-0.86,-0.62,-0.09,10.67,2625
16:31:28.754,26766,-0.67,-0.64,-0.19,9.49,2626
16:31:28.770,26776,-0.51,-0.87,0.19,10.29,2627
16:31:28.773,26786,-0.58,-0.96,0.35,11.77,2628
16:31:28.782,26796,-0.62,-0.89,0.29,11.21,2629
16:31:28.796,26806,-0.46,-0.77,0.32,9.53,2630
16:31:28.808,26816,-0.46,-0.69,0.49,9.64,2631
16:31:28.818,26826,-0.86,-0.67,0.15,10.96,2632
16:31:28.824,26836,-0.96,-0.67,0.06,11.73,2633
16:31:28.834,26846,-0.94,-0.88,0.03,12.86,2634
16:31:28.844,26856,-0.72,-0.96,-0.03,11.97,2635
16:31:28.860,26866,-0.56,-0.95,-0.02,11.02,2636
16:31:28.864,26876,-0.53,-0.91,-0.01,10.51,2637
16:31:28.877,26886,-0.65,-0.77,0.06,10.12,2638
16:31:28.884,26896,-0.78,-0.65,0.18,10.33,2639
16:31:28.895,26906,-0.87,-0.59,0.21,10.71,2640
16:31:28.905,26916,-0.95,-0.61,0.23,11.52,2641
16:31:28.916,26926,-0.96,-0.65,0.21,11.74,2642
16:31:28.925,26936,-0.96,-0.59,0.19,11.40,2643
16:31:28.934,26946,-0.96,-0.53,0.16,11.09,2644
16:31:28.948,26956,-0.93,-0.55,0.18,10.97,2645
16:31:28.953,26966,-0.84,-0.60,0.16,10.47,2646
16:31:28.963,26976,-0.76,-0.71,0.12,10.43,2647
16:31:28.976,26986,-0.68,-0.80,0.10,10.49,2648
16:31:28.989,26996,-0.63,-0.86,0.03,10.68,2649
16:31:28.993,27006,-0.65,-0.85,-0.01,10.70,2650
16:31:29.007,27016,-0.72,-0.81,-0.02,10.81,2651
16:31:29.018,27026,-0.76,-0.73,-0.01,10.49,2652
16:31:29.027,27036,-0.78,-0.65,-0.01,10.13,2653
16:31:29.040,27046,-0.79,-0.60,-0.03,9.91,2654
16:31:29.077,27056,-0.84,-0.57,-0.05,10.16,2655
16:31:29.081,27066,-0.90,-0.60,-0.07,10.83,2656
16:31:29.081,27076,-0.88,-0.65,-0.08,10.96,2657
16:31:29.083,27086,-0.83,-0.70,-0.07,10.86,2658
16:31:29.120,27096,-0.74,-0.72,-0.08,10.40,2659
16:31:29.120,27106,-0.67,-0.73,-0.11,9.95,2660
16:31:29.121,27116,-0.66,-0.72,-0.13,9.82,2661
16:31:29.122,27126,-0.73,-0.70,-0.10,10.17,2662
16:31:29.124,27136,-0.82,-0.67,-0.06,10.64,2663
16:31:29.161,27146,-0.87,-0.63,-0.01,10.73,2664
16:31:29.161,27156,-0.85,-0.60,0.02,10.41,2665
16:31:29.161,27166,-0.81,-0.58,0.01,9.99,2666
16:31:29.164,27176,-0.78,-0.60,0.00,9.86,2667
16:31:29.200,27186,-0.78,-0.66,0.01,10.22,2668
16:31:29.202,27196,-0.78,-0.67,-0.00,10.30,2669
16:31:29.202,27206,-0.77,-0.68,0.00,10.26,2670
16:31:29.203,27216,-0.75,-0.69,0.01,10.17,2671
16:31:29.242,27226,-0.75,-0.66,-0.02,10.01,2672
16:31:29.242,27236,-0.73,-0.68,-0.06,10.03,2673
16:31:29.243,27246,-0.70,-0.73,-0.05,10.14,2674
16:31:29.245,27256,-0.69,-0.79,-0.08,10.48,2675
16:31:29.269,27266,-0.68,-0.81,-0.08,10.59,2676
16:31:29.269,27276,-0.74,-0.77,-0.10,10.74,2677
16:31:29.303,27286,-0.80,-0.72,-0.07,10.79,2678
16:31:29.303,27296,-0.82,-0.64,-0.02,10.45,2679
16:31:29.304,27306,-0.85,-0.58,0.01,10.28,2680
16:31:29.305,27316,-0.90,-0.52,0.03,10.40,2681
16:31:29.316,27326,-0.90,-0.55,0.05,10.55,2682
16:31:29.323,27336,-0.85,-0.64,-0.01,10.64,2683
16:31:29.335,27346,-0.79,-0.70,-0.04,10.56,2684
16:31:29.352,27356,-0.79,-0.78,-0.05,11.15,2685
16:31:29.353,27366,-0.83,-0.83,-0.03,11.69,2686
16:31:29.372,27376,-0.89,-0.80,-0.03,11.99,2687
16:31:29.378,27386,-0.96,-0.71,-0.03,12.01,2688
16:31:29.384,27396,-0.96,-0.61,-0.07,11.41,2689
16:31:29.395,27406,-0.99,-0.54,-0.13,11.39,2690
16:31:29.406,27416,-1.01,-0.54,-0.14,11.54,2691
16:31:29.425,27426,-1.06,-0.57,-0.16,12.13,2692
16:31:29.426,27436,-1.09,-0.58,-0.18,12.48,2693
16:31:29.433,27446,-1.14,-0.58,-0.18,12.93,2694
16:31:29.450,27456,-1.22,-0.58,-0.16,13.59,2695
16:31:29.454,27466,-1.36,-0.56,-0.24,14.85,2696
16:31:29.472,27476,-1.46,-0.55,-0.29,15.87,2697
16:31:29.473,27486,-1.54,-0.52,-0.34,16.66,2698
16:31:29.484,27496,-1.56,-0.47,-0.37,16.67,2699
16:31:29.501,27506,-1.41,-0.48,-0.31,15.18,2700
16:31:29.507,27516,-1.23,-0.61,-0.08,13.75,2701
16:31:29.522,27526,-1.10,-0.74,0.10,13.25,2702
16:31:29.523,27536,-1.01,-0.87,0.22,13.53,2703
16:31:29.532,27546,-0.87,-1.00,0.36,13.69,2704
16:31:29.547,27556,-0.77,-1.11,0.39,14.07,2705
16:31:29.555,27566,-0.68,-1.15,0.47,14.22,2706
16:31:29.563,27576,-0.60,-1.14,0.55,14.01,2707
16:31:29.572,27586,-0.55,-1.07,0.59,13.39,2708
16:31:29.590,27596,-0.46,-1.00,0.74,13.28,2709
16:31:29.593,27606,-0.33,-1.00,1.16,15.64,2710
16:31:29.606,27616,-0.18,-1.00,1.27,16.26,2711
16:31:29.613,27626,-0.20,-0.82,0.79,11.56,2712
16:31:29.623,27636,-0.41,-0.64,0.52,9.15,2713
16:31:29.640,27646,-0.59,-0.69,0.63,10.98,2714
16:31:29.644,27656,-0.60,-0.76,0.68,11.80,2715
16:31:29.654,27666,-0.46,-0.81,0.67,11.45,2716
16:31:29.671,27676,-0.24,-0.81,0.68,10.84,2717
16:31:29.675,27686,-0.05,-0.75,0.64,9.88,2718
16:31:29.684,27696,0.01,-0.67,0.61,9.04,2719
16:31:29.693,27706,-0.04,-0.60,0.62,8.63,2720
16:31:29.704,27716,-0.12,-0.55,0.64,8.55,2721
16:31:29.719,27726,-0.23,-0.45,0.66,8.28,2722
16:31:29.723,27736,-0.29,-0.34,0.56,7.12,2723
16:31:29.732,27746,-0.25,-0.30,0.60,7.16,2724
16:31:29.744,27756,-0.23,-0.33,0.67,7.85,2725
16:31:29.754,27766,-0.19,-0.35,0.75,8.50,2726
16:31:29.768,27776,-0.19,-0.36,0.70,8.09,2727
16:31:29.780,27786,-0.29,-0.33,0.57,7.18,2728
16:31:29.787,27796,-0.41,-0.31,0.50,7.17,2729
16:31:29.796,27806,-0.45,-0.33,0.50,7.48,2730
16:31:29.806,27816,-0.46,-0.37,0.50,7.70,2731
16:31:29.816,27826,-0.47,-0.38,0.49,7.79,2732
16:31:29.826,27836,-0.51,-0.40,0.45,7.91,2733
16:31:29.879,27846,-0.55,-0.50,0.49,8.94,2734
16:31:29.879,27856,-0.62,-0.63,0.47,10.03,2735
16:31:29.880,27866,-0.64,-0.72,0.40,10.43,2736
16:31:29.881,27876,-0.67,-0.76,0.35,10.71,2737
16:31:29.881,27886,-0.71,-0.77,0.35,11.10,2738
16:31:29.919,27896,-0.75,-0.73,0.38,11.14,2739
16:31:29.919,27906,-0.89,-0.84,0.28,12.55,2740
16:31:29.921,27916,-0.86,-0.79,0.12,11.77,2741
16:31:29.921,27926,-0.71,-0.54,-0.03,8.89,2742
16:31:29.923,27936,-0.67,-0.28,-0.13,7.41,2743
16:31:29.960,27946,-0.71,-0.09,-0.33,7.92,2744
16:31:30.013,27956,-0.81,0.05,-0.71,10.78,2745
16:31:30.014,27966,-0.98,0.21,-1.23,15.80,2746
16:31:30.015,27976,-0.74,0.30,-1.53,17.31,2747
16:31:30.016,27986,-0.65,0.19,-1.50,16.47,2748
16:31:30.018,27996,-0.62,-0.11,-0.86,10.64,2749
16:31:30.049,28006,-0.57,-0.44,-0.37,8.09,2750
16:31:30.050,28016,-0.47,-0.69,-0.07,8.36,2751
16:31:30.052,28026,-0.29,-0.79,0.04,8.38,2752
16:31:30.052,28036,-0.24,-0.72,0.10,7.68,2753
16:31:30.053,28046,-0.47,-0.66,-0.00,8.08,2754
16:31:30.054,28056,-0.82,-0.88,0.10,12.08,2755
16:31:30.055,28066,-1.10,-1.17,0.33,16.44,2756
16:31:30.067,28076,-1.32,-1.13,0.11,17.42,2757
16:31:30.074,28086,-1.32,-0.60,-0.14,14.58,2758
16:31:30.085,28096,-1.63,-0.17,-0.39,16.81,2759
16:31:30.096,28106,-1.78,0.00,-0.32,18.05,2760
16:31:30.106,28116,-1.95,0.08,-0.11,19.52,2761
16:31:30.116,28126,-1.55,-0.26,0.16,15.76,2762
16:31:30.124,28136,-1.01,-0.51,0.12,11.41,2763
16:31:30.133,28146,-0.72,-0.53,0.04,8.95,2764
16:31:30.144,28156,-0.62,-0.70,0.21,9.55,2765
16:31:30.155,28166,-0.62,-0.98,0.43,12.35,2766
16:31:30.164,28176,-0.63,-1.12,0.27,13.11,2767
16:31:30.174,28186,-0.44,-1.00,0.22,11.12,2768
16:31:30.184,28196,-0.48,-0.94,0.16,10.70,2769
16:31:30.199,28206,-0.55,-0.96,0.05,11.06,2770
16:31:30.204,28216,-0.67,-0.95,-0.03,11.62,2771
16:31:30.222,28226,-0.85,-0.89,-0.06,12.30,2772
16:31:30.225,28236,-0.90,-0.77,0.00,11.84,2773
16:31:30.236,28246,-0.85,-0.63,0.04,10.52,2774
16:31:30.245,28256,-0.79,-0.52,0.14,9.58,2775
16:31:30.258,28266,-0.87,-0.48,0.24,10.25,2776
16:31:30.263,28276,-0.94,-0.42,0.28,10.71,2777
16:31:30.282,28286,-1.01,-0.45,0.26,11.39,2778
16:31:30.284,28296,-0.94,-0.52,0.17,10.84,2779
16:31:30.292,28306,-0.90,-0.55,0.09,10.58,2780
16:31:30.305,28316,-0.95,-0.49,0.06,10.66,2781
16:31:30.314,28326,-1.03,-0.47,0.04,11.32,2782
16:31:30.330,28336,-1.10,-0.42,0.09,11.81,2783
16:31:30.333,28346,-1.11,-0.38,0.08,11.75,2784
16:31:30.346,28356,-0.97,-0.51,-0.02,10.94,2785
16:31:30.357,28366,-0.80,-0.73,-0.09,10.88,2786
16:31:30.365,28376,-0.58,-1.01,-0.11,11.68,2787
16:31:30.376,28386,-0.37,-1.16,-0.15,12.29,2788
16:31:30.385,28396,-0.33,-1.15,-0.25,12.18,2789
16:31:30.394,28406,-0.47,-0.98,-0.27,11.19,2790
16:31:30.409,28416,-0.67,-0.84,-0.17,10.88,2791
16:31:30.413,28426,-0.79,-0.73,-0.12,10.83,2792
16:31:30.426,28436,-0.88,-0.60,-0.10,10.68,2793
16:31:30.434,28446,-0.88,-0.59,-0.06,10.62,2794
16:31:30.446,28456,-0.84,-0.63,-0.05,10.49,2795
16:31:30.456,28466,-0.85,-0.64,-0.03,10.65,2796
16:31:30.468,28476,-0.88,-0.61,-0.03,10.73,2797
16:31:30.475,28486,-0.84,-0.65,-0.06,10.65,2798
16:31:30.531,28496,-0.81,-0.66,-0.08,10.46,2799
16:31:30.531,28506,-0.80,-0.67,-0.09,10.45,2800
16:31:30.531,28516,-0.77,-0.68,-0.11,10.37,2801
16:31:30.533,28526,-0.74,-0.72,-0.14,10.43,2802
16:31:30.534,28536,-0.71,-0.76,-0.13,10.48,2803
16:31:30.536,28546,-0.68,-0.79,-0.15,10.53,2804
16:31:30.572,28556,-0.62,-0.81,-0.18,10.42,2805
16:31:30.573,28566,-0.60,-0.82,-0.19,10.35,2806
16:31:30.573,28576,-0.67,-0.81,-0.22,10.76,2807
16:31:30.610,28586,-0.66,-0.88,-0.21,11.17,2808
16:31:30.610,28596,-0.58,-0.98,-0.25,11.60,2809
16:31:30.611,28606,-0.47,-0.95,-0.21,10.82,2810
16:31:30.612,28616,-0.61,-0.72,-0.10,9.48,2811
16:31:30.614,28626,-0.92,-0.41,0.04,10.08,2812
16:31:30.640,28636,-1.12,-0.34,0.15,11.80,2813
16:31:30.642,28646,-1.27,-0.24,0.19,13.07,2814
16:31:30.642,28656,-1.21,-0.14,0.14,12.31,2815
16:31:30.682,28666,-0.93,-0.48,0.00,10.48,2816
16:31:30.682,28676,-0.72,-0.76,-0.10,10.53,2817
16:31:30.683,28686,-0.62,-0.89,-0.16,10.95,2818
16:31:30.685,28696,-0.72,-0.80,-0.14,10.84,2819
16:31:30.723,28706,-0.80,-0.71,-0.02,10.72,2820
16:31:30.723,28716,-0.81,-0.67,0.03,10.54,2821
16:31:30.725,28726,-0.80,-0.67,0.00,10.44,2822
16:31:30.725,28736,-0.78,-0.69,-0.02,10.43,2823
16:31:30.749,28746,-0.87,-0.64,-0.03,10.80,2824
16:31:30.749,28756,-0.95,-0.60,-0.05,11.24,2825
16:31:30.756,28766,-1.03,-0.61,-0.04,11.96,2826
16:31:30.764,28776,-1.07,-0.59,-0.07,12.19,2827
16:31:30.773,28786,-1.08,-0.55,-0.14,12.20,2828
16:31:30.784,28796,-1.15,-0.52,-0.18,12.68,2829
16:31:30.793,28806,-1.26,-0.48,-0.28,13.81,2830
16:31:30.809,28816,-1.31,-0.40,-0.31,14.02,2831
16:31:30.812,28826,-1.37,-0.32,-0.30,14.38,2832
16:31:30.828,28836,-1.50,-0.23,-0.22,15.29,2833
16:31:30.833,28846,-1.64,-0.15,-0.15,16.53,2834
16:31:30.845,28856,-1.73,-0.11,-0.07,17.34,2835
16:31:30.858,28866,-1.82,-0.20,-0.19,18.37,2836
16:31:30.864,28876,-1.59,-0.49,-0.33,16.98,2837
16:31:30.883,28886,-1.29,-0.74,-0.29,15.21,2838
16:31:30.887,28896,-0.93,-1.02,-0.13,13.87,2839
16:31:30.894,28906,-0.67,-1.32,0.05,14.79,2840
16:31:30.902,28916,-0.52,-1.58,0.33,16.92,2841
16:31:30.917,28926,-0.46,-1.64,0.43,17.61,2842
16:31:30.924,28936,-0.47,-1.61,0.51,17.57,2843
16:31:30.936,28946,-0.45,-1.45,0.48,15.95,2844
16:31:30.945,28956,-0.28,-1.35,0.58,14.95,2845
16:31:30.957,28966,-0.11,-1.24,0.68,14.14,2846
16:31:30.967,28976,0.03,-1.12,0.75,13.50,2847
16:31:30.974,28986,0.02,-1.00,0.72,12.30,2848
16:31:30.988,28996,-0.14,-1.05,0.48,11.65,2849
16:31:30.994,29006,-0.45,-0.82,0.42,10.26,2850
16:31:31.004,29016,-0.59,-0.72,0.47,10.40,2851
16:31:31.021,29026,-0.59,-0.65,0.54,10.31,2852
16:31:31.022,29036,-0.43,-0.62,0.57,9.51,2853
16:31:31.037,29046,-0.27,-0.63,0.56,8.86,2854
16:31:31.048,29056,-0.19,-0.63,0.46,8.06,2855
16:31:31.054,29066,-0.18,-0.58,0.45,7.54,2856
16:31:31.073,29076,-0.19,-0.57,0.50,7.83,2857
16:31:31.074,29086,-0.25,-0.59,0.51,8.18,2858
16:31:31.085,29096,-0.29,-0.60,0.54,8.58,2859
16:31:31.095,29106,-0.27,-0.57,0.53,8.24,2860
16:31:31.107,29116,-0.25,-0.54,0.50,7.77,2861
16:31:31.113,29126,-0.24,-0.51,0.43,7.03,2862
16:31:31.125,29136,-0.20,-0.55,0.44,7.34,2863
16:31:31.136,29146,-0.25,-0.63,0.46,8.17,2864
16:31:31.145,29156,-0.23,-0.76,0.49,9.32,2865
16:31:31.157,29166,-0.13,-0.86,0.49,9.97,2866
16:31:31.166,29176,-0.06,-0.84,0.51,9.89,2867
16:31:31.173,29186,-0.13,-0.74,0.51,9.09,2868
16:31:31.189,29196,-0.27,-0.61,0.46,8.11,2869
16:31:31.194,29206,-0.47,-0.51,0.45,8.27,2870
16:31:31.205,29216,-0.68,-0.46,0.50,9.57,2871
16:31:31.214,29226,-0.89,-0.36,0.52,10.94,2872
16:31:31.226,29236,-1.02,-0.20,0.52,11.62,2873
16:31:31.235,29246,-0.91,0.02,0.24,9.40,2874
16:31:31.244,29256,-0.66,-0.17,0.21,7.10,2875
16:31:31.254,29266,-0.67,-0.51,0.17,8.59,2876
16:31:31.308,29276,-0.64,-0.74,0.17,9.96,2877
16:31:31.308,29286,-0.61,-0.86,0.20,10.70,2878
16:31:31.308,29296,-0.61,-0.87,0.22,10.86,2879
16:31:31.309,29306,-0.58,-0.84,0.27,10.52,2880
16:31:31.311,29316,-0.67,-0.65,0.01,9.37,2881
16:31:31.313,29326,-0.77,-0.40,-0.11,8.72,2882
16:31:31.348,29336,-0.82,-0.26,-0.15,8.74,2883
16:31:31.348,29346,-0.81,-0.24,-0.22,8.75,2884
16:31:31.351,29356,-0.77,-0.27,-0.51,9.65,2885
16:31:31.352,29366,-0.63,-0.34,-0.75,10.34,2886
16:31:31.387,29376,-0.55,-0.35,-0.95,11.49,2887
16:31:31.387,29386,-0.46,-0.28,-0.96,11.00,2888
16:31:31.388,29396,-0.50,-0.31,-0.74,9.46,2889
16:31:31.426,29406,-0.51,-0.34,-0.44,7.56,2890
16:31:31.427,29416,-0.53,-0.40,-0.18,6.87,2891
16:31:31.429,29426,-0.68,-0.56,-0.05,8.81,2892
16:31:31.431,29436,-0.84,-0.78,-0.00,11.49,2893
16:31:31.431,29446,-0.92,-0.91,-0.06,12.93,2894
16:31:31.468,29456,-1.28,-0.87,-0.22,15.65,2895
16:31:31.469,29466,-1.84,-0.77,-0.22,20.03,2896
16:31:31.470,29476,-2.13,-0.27,-0.16,21.48,2897
16:31:31.478,29486,-2.09,0.19,-0.47,21.55,2898
16:31:31.495,29496,-1.80,0.46,-0.54,19.37,2899
16:31:31.495,29506,-1.27,-0.20,-0.23,13.03,2900
16:31:31.506,29516,-0.89,-0.74,0.18,11.69,2901
16:31:31.512,29526,-0.67,-0.88,0.11,11.13,2902
16:31:31.524,29536,-0.49,-0.87,-0.02,10.01,2903
16:31:31.533,29546,-0.45,-0.87,0.01,9.77,2904
16:31:31.549,29556,-0.38,-0.99,0.25,10.94,2905
16:31:31.554,29566,-0.41,-1.11,0.33,12.26,2906
16:31:31.570,29576,-0.51,-1.02,0.34,11.90,2907
16:31:31.574,29586,-0.75,-0.79,0.34,11.40,2908
16:31:31.583,29596,-0.94,-0.61,0.32,11.70,2909
16:31:31.592,29606,-1.06,-0.52,0.30,12.20,2910
16:31:31.602,29616,-0.99,-0.50,0.23,11.39,2911
16:31:31.612,29626,-0.86,-0.60,0.11,10.48,2912
16:31:31.622,29636,-0.74,-0.69,0.05,10.13,2913
16:31:31.633,29646,-0.68,-0.82,0.03,10.66,2914
16:31:31.646,29656,-0.65,-0.89,0.07,11.01,2915
16:31:31.657,29666,-0.69,-0.90,0.13,11.41,2916
16:31:31.665,29676,-0.68,-0.88,0.14,11.21,2917
16:31:31.674,29686,-0.74,-0.81,0.09,10.97,2918
16:31:31.684,29696,-0.84,-0.71,0.07,11.07,2919
16:31:31.693,29706,-0.91,-0.60,0.07,10.94,2920
16:31:31.704,29716,-0.95,-0.49,0.05,10.68,2921
16:31:31.713,29726,-0.88,-0.51,0.03,10.17,2922
16:31:31.725,29736,-0.84,-0.59,-0.03,10.29,2923
16:31:31.735,29746,-0.78,-0.73,-0.06,10.71,2924
16:31:31.742,29756,-0.67,-0.86,-0.11,11.01,2925
16:31:31.752,29766,-0.61,-0.86,-0.11,10.64,2926
16:31:31.762,29776,-0.62,-0.83,-0.11,10.45,2927
16:31:31.773,29786,-0.68,-0.77,-0.06,10.30,2928
16:31:31.791,29796,-0.76,-0.68,-0.06,10.24,2929
16:31:31.793,29806,-0.86,-0.62,-0.01,10.63,2930
16:31:31.804,29816,-0.92,-0.56,-0.02,10.77,2931
16:31:31.812,29826,-0.93,-0.57,-0.03,10.94,2932
16:31:31.827,29836,-0.88,-0.65,-0.05,11.00,2933
16:31:31.833,29846,-0.82,-0.70,-0.09,10.79,2934
16:31:31.861,29856,-0.78,-0.73,-0.13,10.78,2935
16:31:31.862,29866,-0.80,-0.74,-0.14,10.95,2936
16:31:31.863,29876,-0.79,-0.72,-0.14,10.83,2937
16:31:31.966,29886,-0.78,-0.74,-0.15,10.85,2938
16:31:31.971,29896,-0.75,-0.74,-0.18,10.66,2939
16:31:31.971,29906,-0.76,-0.71,-0.17,10.56,2940
16:31:31.971,29916,-0.81,-0.62,-0.16,10.38,2941
16:31:31.971,29926,-0.84,-0.57,-0.12,10.24,2942
16:31:31.971,29936,-0.85,-0.55,-0.07,10.15,2943
16:31:31.975,29946,-0.83,-0.58,-0.04,10.13,2944
16:31:31.977,29956,-0.78,-0.65,-0.01,10.15,2945
16:31:31.977,29966,-0.77,-0.66,-0.02,10.12,2946
16:31:31.977,29976,-0.78,-0.65,-0.02,10.10,2947
16:31:31.977,29986,-0.77,-0.66,-0.06,10.11,2948
16:31:31.985,29996,-0.77,-0.66,-0.09,10.19,2949
16:31:32.036,30006,-0.83,-0.64,-0.07,10.47,2950
16:31:32.036,30016,-0.86,-0.63,-0.03,10.69,2951
16:31:32.037,30026,-0.85,-0.67,-0.02,10.84,2952
16:31:32.038,30036,-0.80,-0.71,-0.02,10.72,2953
16:31:32.039,30046,-0.78,-0.72,-0.01,10.57,2954
16:31:32.077,30056,-0.81,-0.64,0.01,10.33,2955
16:31:32.078,30066,-0.90,-0.55,0.01,10.57,2956
16:31:32.078,30076,-0.92,-0.52,-0.02,10.52,2957
16:31:32.079,30086,-0.84,-0.51,-0.08,9.88,2958
16:31:32.117,30096,-0.87,-0.50,-0.19,10.23,2959
16:31:32.118,30106,-0.86,-0.53,-0.26,10.49,2960
16:31:32.119,30116,-0.92,-0.58,-0.28,11.20,2961
16:31:32.120,30126,-1.01,-0.63,-0.34,12.37,2962
16:31:32.121,30136,-1.10,-0.63,-0.32,13.07,2963
16:31:32.154,30146,-1.20,-0.59,-0.38,13.86,2964
16:31:32.155,30156,-1.24,-0.52,-0.32,13.78,2965
16:31:32.157,30166,-1.26,-0.47,-0.20,13.62,2966
16:31:32.196,30176,-1.35,-0.45,-0.08,14.25,2967
16:31:32.196,30186,-1.50,-0.42,-0.13,15.67,2968
16:31:32.198,30196,-1.58,-0.34,-0.23,16.30,2969
16:31:32.200,30206,-1.50,-0.42,-0.25,15.74,2970
16:31:32.222,30216,-1.31,-0.72,-0.10,14.99,2971
16:31:32.223,30226,-1.17,-0.98,0.07,15.22,2972
16:31:32.224,30236,-0.96,-1.16,0.18,15.18,2973
16:31:32.236,30246,-0.86,-1.27,0.29,15.63,2974
16:31:32.244,30256,-0.74,-1.30,0.55,15.95,2975
16:31:32.261,30266,-0.75,-1.30,0.64,16.30,2976
16:31:32.264,30276,-0.65,-1.18,0.84,15.88,2977
16:31:32.274,30286,-0.65,-1.08,0.75,14.61,2978
16:31:32.286,30296,-0.52,-1.03,0.64,13.15,2979
16:31:32.295,30306,-0.32,-1.02,0.67,12.62,2980
16:31:32.305,30316,-0.03,-0.98,0.85,12.93,2981
16:31:32.317,30326,0.15,-0.86,0.94,12.80,2982
16:31:32.322,30336,0.26,-0.78,0.84,11.76,2983
16:31:32.334,30346,-0.04,-0.67,0.63,9.26,2984
16:31:32.363,30356,-0.36,-0.70,0.48,9.20,2985
16:31:32.364,30366,-0.50,-0.74,0.53,10.38,2986
16:31:32.365,30376,-0.43,-0.77,0.55,10.36,2987
16:31:32.373,30386,-0.22,-0.78,0.55,9.80,2988
16:31:32.382,30396,-0.03,-0.73,0.56,9.20,2989
16:31:32.394,30406,0.04,-0.63,0.50,8.03,2990
16:31:32.404,30416,0.04,-0.52,0.54,7.55,2991
16:31:32.413,30426,-0.05,-0.41,0.53,6.71,2992
16:31:32.423,30436,-0.19,-0.38,0.49,6.43,2993
16:31:32.437,30446,-0.28,-0.38,0.49,6.83,2994
16:31:32.443,30456,-0.31,-0.48,0.53,7.83,2995
16:31:32.453,30466,-0.31,-0.54,0.56,8.37,2996
16:31:32.462,30476,-0.38,-0.51,0.51,8.15,2997
16:31:32.473,30486,-0.36,-0.49,0.48,7.74,2998
16:31:32.485,30496,-0.35,-0.50,0.44,7.56,2999
16:31:32.493,30506,-0.40,-0.53,0.44,7.98,3000
16:31:32.503,30516,-0.48,-0.59,0.47,8.98,3001
16:31:32.513,30526,-0.50,-0.65,0.49,9.54,3002
16:31:32.522,30536,-0.42,-0.75,0.49,9.88,3003
16:31:32.533,30546,-0.37,-0.77,0.46,9.67,3004
16:31:32.547,30556,-0.37,-0.71,0.41,9.00,3005
16:31:32.555,30566,-0.43,-0.65,0.41,8.78,3006
16:31:32.571,30576,-0.55,-0.59,0.41,9.02,3007
16:31:32.574,30586,-0.70,-0.51,0.43,9.63,3008
16:31:32.588,30596,-0.73,-0.37,0.21,8.45,3009
16:31:32.605,30606,-0.78,-0.34,0.22,8.77,3010
16:31:32.606,30616,-0.89,-0.34,0.22,9.78,3011
16:31:32.614,30626,-0.99,-0.31,0.23,10.61,3012
16:31:32.623,30636,-0.97,-0.27,0.29,10.52,3013
16:31:32.636,30646,-0.84,-0.42,0.33,9.94,3014
16:31:32.644,30656,-0.83,-0.61,0.17,10.39,3015
16:31:32.654,30666,-0.82,-0.73,-0.06,10.98,3016
16:31:32.663,30676,-0.69,-0.74,-0.19,10.25,3017
16:31:32.673,30686,-0.59,-0.63,-0.22,8.92,3018
16:31:32.684,30696,-0.65,-0.39,-0.33,8.27,3019
16:31:32.694,30706,-0.74,-0.21,-0.46,9.00,3020
16:31:32.726,30716,-0.81,-0.16,-0.62,10.31,3021
16:31:32.726,30726,-0.76,-0.25,-0.72,10.77,3022
16:31:32.728,30736,-0.66,-0.26,-0.83,10.87,3023
16:31:32.767,30746,-0.58,-0.22,-0.84,10.42,3024
16:31:32.767,30756,-0.61,-0.31,-0.67,9.60,3025
16:31:32.769,30766,-0.62,-0.37,-0.49,8.72,3026
16:31:32.769,30776,-0.68,-0.50,-0.33,9.08,3027
16:31:32.808,30786,-0.76,-0.67,-0.24,10.42,3028
16:31:32.810,30796,-0.60,-0.71,-0.20,9.55,3029
16:31:32.810,30806,-0.64,-0.68,-0.30,9.78,3030
16:31:32.811,30816,-1.10,-0.65,-0.28,13.09,3031
16:31:32.812,30826,-1.82,-0.61,-0.15,19.20,3032
16:31:32.848,30836,-2.13,-0.47,-0.16,21.82,3033
16:31:32.849,30846,-2.13,0.01,-0.32,21.49,3034
16:31:32.850,30856,-1.62,0.37,-0.37,16.99,3035
16:31:32.852,30866,-1.19,-0.14,-0.25,12.28,3036
16:31:32.882,30876,-0.85,-0.76,-0.14,11.46,3037
16:31:32.884,30886,-0.61,-0.95,0.11,11.34,3038
16:31:32.886,30896,-0.38,-1.14,0.22,12.16,3039
16:31:32.916,30906,-0.14,-1.19,0.44,12.74,3040
16:31:32.917,30916,-0.17,-1.19,0.30,12.44,3041
16:31:32.919,30926,-0.49,-0.77,0.37,9.85,3042
16:31:32.922,30936,-0.56,-0.66,0.48,9.95,3043
16:31:32.943,30946,-0.99,-0.49,0.46,12.02,3044
16:31:32.944,30956,-1.32,-0.37,0.25,13.95,3045
16:31:32.952,30966,-1.20,-0.40,0.17,12.79,3046
16:31:32.969,30976,-0.90,-0.72,0.20,11.64,3047
16:31:32.973,30986,-0.63,-0.92,0.08,11.14,3048
16:31:32.989,30996,-0.47,-0.98,0.01,10.88,3049
16:31:32.992,31006,-0.48,-0.99,-0.04,11.00,3050
16:31:33.007,31016,-0.64,-0.85,-0.02,10.66,3051
16:31:33.013,31026,-0.71,-0.84,-0.00,11.01,3052
16:31:33.027,31036,-0.72,-0.85,-0.03,11.13,3053
16:31:33.032,31046,-0.75,-0.82,-0.03,11.10,3054
16:31:33.042,31056,-0.78,-0.79,-0.00,11.09,3055
16:31:33.053,31066,-0.85,-0.69,-0.02,10.95,3056
16:31:33.064,31076,-0.91,-0.62,0.00,11.02,3057
16:31:33.072,31086,-0.92,-0.58,0.01,10.82,3058
16:31:33.082,31096,-0.86,-0.59,-0.01,10.43,3059
16:31:33.100,31106,-0.81,-0.61,-0.08,10.15,3060
16:31:33.104,31116,-0.76,-0.68,-0.11,10.23,3061
16:31:33.143,31126,-0.74,-0.73,-0.12,10.51,3062
16:31:33.146,31136,-0.72,-0.77,-0.11,10.61,3063
16:31:33.146,31146,-0.72,-0.79,-0.09,10.75,3064
16:31:33.147,31156,-0.74,-0.76,-0.07,10.63,3065
16:31:33.152,31166,-0.78,-0.71,-0.08,10.55,3066
16:31:33.166,31176,-0.83,-0.62,-0.03,10.35,3067
16:31:33.177,31186,-0.89,-0.52,-0.04,10.32,3068
16:31:33.187,31196,-0.93,-0.48,-0.04,10.49,3069
16:31:33.192,31206,-0.88,-0.57,-0.04,10.52,3070
16:31:33.202,31216,-0.83,-0.67,-0.08,10.70,3071
16:31:33.212,31226,-0.75,-0.74,-0.09,10.64,3072
16:31:33.261,31236,-0.74,-0.79,-0.08,10.79,3073
16:31:33.262,31246,-0.76,-0.72,-0.06,10.52,3074
16:31:33.262,31256,-0.81,-0.65,-0.04,10.41,3075
16:31:33.292,31266,-0.84,-0.60,0.01,10.31,3076
16:31:33.293,31276,-0.86,-0.56,0.04,10.29,3077
16:31:33.294,31286,-0.87,-0.56,0.04,10.35,3078
16:31:33.295,31296,-0.85,-0.59,0.02,10.41,3079
16:31:33.297,31306,-0.83,-0.65,0.03,10.53,3080
16:31:33.304,31316,-0.82,-0.69,0.04,10.68,3081
16:31:33.312,31326,-0.79,-0.69,0.05,10.56,3082
16:31:33.322,31336,-0.81,-0.66,0.04,10.45,3083
16:31:33.333,31346,-0.81,-0.62,-0.02,10.25,3084
16:31:33.346,31356,-0.84,-0.60,-0.07,10.32,3085
16:31:33.353,31366,-0.85,-0.62,-0.13,10.58,3086
16:31:33.372,31376,-0.86,-0.63,-0.14,10.80,3087
16:31:33.372,31386,-0.87,-0.60,-0.17,10.70,3088
16:31:33.382,31396,-0.82,-0.62,-0.17,10.37,3089
16:31:33.395,31406,-0.80,-0.63,-0.16,10.30,3090
16:31:33.410,31416,-0.80,-0.65,-0.13,10.36,3091
16:31:33.414,31426,-0.82,-0.65,-0.11,10.57,3092
16:31:33.423,31436,-0.83,-0.66,-0.09,10.64,3093
16:31:33.436,31446,-0.82,-0.65,-0.06,10.46,3094
16:31:33.442,31456,-0.85,-0.62,-0.07,10.54,3095
16:31:33.453,31466,-0.90,-0.61,-0.06,10.94,3096
16:31:33.509,31476,-0.96,-0.55,-0.08,11.14,3097
16:31:33.510,31486,-0.92,-0.57,-0.15,10.93,3098
16:31:33.512,31496,-0.90,-0.61,-0.19,11.03,3099
16:31:33.514,31506,-0.93,-0.60,-0.16,11.23,3100
16:31:33.515,31516,-0.99,-0.55,-0.11,11.36,3101
16:31:33.515,31526,-1.08,-0.49,-0.10,11.95,3102
16:31:33.549,31536,-1.12,-0.47,-0.05,12.20,3103
16:31:33.550,31546,-1.19,-0.52,-0.03,12.95,3104
16:31:33.552,31556,-1.21,-0.55,-0.06,13.25,3105
16:31:33.554,31566,-1.22,-0.56,-0.11,13.49,3106
16:31:33.591,31576,-1.24,-0.53,-0.10,13.56,3107
16:31:33.591,31586,-1.31,-0.51,-0.05,14.10,3108
16:31:33.593,31596,-1.49,-0.51,-0.16,15.86,3109
16:31:33.594,31606,-1.61,-0.50,-0.28,17.13,3110
16:31:33.633,31616,-1.60,-0.53,-0.31,17.11,3111
16:31:33.633,31626,-1.27,-0.72,-0.18,14.70,3112
16:31:33.634,31636,-0.99,-0.97,-0.06,13.87,3113
16:31:33.635,31646,-0.78,-1.18,0.10,14.15,3114
16:31:33.666,31656,-0.70,-1.28,0.35,14.98,3115
16:31:33.666,31666,-0.71,-1.29,0.53,15.67,3116
16:31:33.668,31676,-0.77,-1.11,0.58,14.66,3117
16:31:33.697,31686,-0.65,-0.89,0.83,13.81,3118
16:31:33.698,31696,-0.59,-0.85,0.98,14.26,3119
16:31:33.699,31706,-0.40,-0.81,1.18,14.92,3120
16:31:33.703,31716,-0.28,-0.66,1.21,14.06,3121
16:31:33.715,31726,-0.40,-0.36,0.78,9.43,3122
16:31:33.722,31736,-0.51,-0.23,0.52,7.66,3123
16:31:33.736,31746,-0.60,-0.37,0.60,9.27,3124
16:31:33.742,31756,-0.66,-0.66,0.64,11.32,3125
16:31:33.752,31766,-0.54,-0.75,0.65,11.32,3126
16:31:33.762,31776,-0.32,-0.76,0.63,10.38,3127
16:31:33.773,31786,-0.10,-0.71,0.60,9.33,3128
16:31:33.783,31796,0.01,-0.64,0.59,8.75,3129
16:31:33.792,31806,-0.15,-0.50,0.55,7.59,3130
16:31:33.802,31816,-0.31,-0.44,0.57,7.88,3131
16:31:33.813,31826,-0.42,-0.41,0.62,8.56,3132
16:31:33.822,31836,-0.49,-0.42,0.60,8.83,3133
16:31:33.832,31846,-0.44,-0.45,0.59,8.61,3134
16:31:33.843,31856,-0.31,-0.46,0.60,8.16,3135
16:31:33.855,31866,-0.21,-0.45,0.60,7.78,3136
16:31:33.862,31876,-0.23,-0.43,0.57,7.50,3137
16:31:33.875,31886,-0.36,-0.47,0.54,8.00,3138
16:31:33.888,31896,-0.50,-0.45,0.53,8.53,3139
16:31:33.892,31906,-0.57,-0.47,0.54,9.09,3140
16:31:33.912,31916,-0.54,-0.48,0.50,8.78,3141
16:31:33.914,31926,-0.51,-0.42,0.50,8.24,3142
16:31:33.942,31936,-0.49,-0.37,0.54,8.14,3143
16:31:33.943,31946,-0.49,-0.41,0.55,8.42,3144
16:31:33.957,31956,-0.56,-0.44,0.43,8.29,3145
16:31:33.958,31966,-0.61,-0.54,0.35,8.89,3146
16:31:33.962,31976,-0.57,-0.64,0.40,9.49,3147
16:31:33.974,31986,-0.61,-0.73,0.37,10.18,3148
16:31:33.983,31996,-0.58,-0.74,0.38,10.15,3149
16:31:33.992,32006,-0.58,-0.73,0.28,9.68,3150
16:31:34.002,32016,-0.63,-0.56,0.09,8.48,3151
16:31:34.014,32026,-0.76,-0.40,0.01,8.59,3152
16:31:34.022,32036,-0.85,-0.33,0.03,9.14,3153
16:31:34.032,32046,-0.91,-0.34,0.09,9.77,3154
16:31:34.042,32056,-0.90,-0.36,0.08,9.76,3155
16:31:34.052,32066,-0.94,-0.31,-0.17,10.11,3156
16:31:34.062,32076,-0.90,-0.15,-0.41,10.03,3157
16:31:34.074,32086,-0.84,-0.05,-0.60,10.34,3158
16:31:34.084,32096,-0.72,-0.09,-0.76,10.51,3159
16:31:34.095,32106,-0.60,-0.18,-0.89,10.93,3160
16:31:34.102,32116,-0.57,-0.33,-0.88,11.00,3161
16:31:34.116,32126,-0.52,-0.42,-0.66,9.39,3162
16:31:34.122,32136,-0.50,-0.44,-0.41,7.87,3163
16:31:34.164,32146,-0.60,-0.50,-0.27,8.22,3164
16:31:34.165,32156,-0.73,-0.63,-0.15,9.74,3165
16:31:34.165,32166,-0.74,-0.67,-0.13,10.08,3166
16:31:34.166,32176,-1.08,-0.64,-0.12,12.60,3167
16:31:34.205,32186,-1.66,-0.60,-0.05,17.67,3168
16:31:34.205,32196,-2.10,-0.31,-0.03,21.23,3169
16:31:34.206,32206,-2.12,0.22,-0.33,21.55,3170
16:31:34.207,32216,-1.82,0.61,-0.52,19.91,3171
16:31:34.245,32226,-1.31,0.07,-0.34,13.55,3172
16:31:34.245,32236,-1.03,-0.50,-0.09,11.46,3173
16:31:34.247,32246,-0.78,-0.87,-0.12,11.74,3174
16:31:34.248,32256,-0.51,-1.00,-0.05,11.27,3175
16:31:34.286,32266,-0.33,-1.12,0.31,12.07,3176
16:31:34.289,32276,-0.25,-1.20,0.47,13.13,3177
16:31:34.289,32286,-0.29,-1.12,0.48,12.53,3178
16:31:34.289,32296,-0.39,-0.81,0.50,10.29,3179
16:31:34.327,32306,-0.53,-0.69,0.40,9.57,3180
16:31:34.328,32316,-0.70,-0.65,0.50,10.75,3181
16:31:34.330,32326,-1.15,-0.64,0.22,13.32,3182
16:31:34.331,32336,-1.20,-0.65,0.08,13.65,3183
16:31:34.332,32346,-0.95,-0.76,0.01,12.18,3184
16:31:34.354,32356,-0.68,-0.76,-0.03,10.17,3185
16:31:34.355,32366,-0.59,-0.83,-0.08,10.20,3186
16:31:34.367,32376,-0.57,-0.85,0.01,10.28,3187
16:31:34.373,32386,-0.66,-0.77,0.06,10.14,3188
16:31:34.383,32396,-0.71,-0.73,0.09,10.24,3189
16:31:34.393,32406,-0.77,-0.74,0.13,10.77,3190
16:31:34.421,32416,-0.83,-0.74,0.18,11.28,3191
16:31:34.421,32426,-0.88,-0.68,0.16,11.21,3192
16:31:34.422,32436,-0.94,-0.53,0.17,10.91,3193
16:31:34.440,32446,-1.04,-0.42,0.13,11.35,3194
16:31:34.443,32456,-1.06,-0.38,0.10,11.26,3195
16:31:34.456,32466,-0.93,-0.52,0.12,10.67,3196
16:31:34.462,32476,-0.85,-0.65,0.04,10.66,3197
16:31:34.473,32486,-0.72,-0.80,0.02,10.76,3198
16:31:34.489,32496,-0.62,-0.88,-0.05,10.81,3199
16:31:34.492,32506,-0.62,-0.85,-0.04,10.54,3200
16:31:34.511,32516,-0.73,-0.75,0.00,10.46,3201
16:31:34.512,32526,-0.86,-0.62,0.01,10.58,3202
16:31:34.523,32536,-0.97,-0.50,0.04,10.90,3203
16:31:34.533,32546,-1.01,-0.46,0.09,11.11,3204
16:31:34.547,32556,-0.88,-0.59,0.07,10.59,3205
16:31:34.560,32566,-0.76,-0.69,-0.00,10.28,3206
16:31:34.563,32576,-0.71,-0.79,-0.05,10.61,3207
16:31:34.577,32586,-0.70,-0.82,-0.04,10.82,3208
16:31:34.620,32596,-0.74,-0.78,-0.02,10.77,3209
16:31:34.620,32606,-0.75,-0.75,0.00,10.58,3210
16:31:34.620,32616,-0.75,-0.70,0.01,10.26,3211
16:31:34.622,32626,-0.76,-0.67,0.01,10.15,3212
16:31:34.624,32636,-0.79,-0.66,0.01,10.29,3213
16:31:34.633,32646,-0.84,-0.65,0.01,10.61,3214
16:31:34.646,32656,-0.84,-0.65,0.03,10.66,3215
16:31:34.654,32666,-0.84,-0.65,0.03,10.64,3216
16:31:34.664,32676,-0.82,-0.64,0.01,10.37,3217
16:31:34.673,32686,-0.79,-0.64,-0.00,10.17,3218
16:31:34.683,32696,-0.77,-0.64,-0.04,10.07,3219
16:31:34.700,32706,-0.81,-0.63,-0.09,10.30,3220
16:31:34.704,32716,-0.84,-0.61,-0.13,10.45,3221
16:31:34.714,32726,-0.87,-0.61,-0.14,10.70,3222
16:31:34.724,32736,-0.86,-0.61,-0.15,10.62,3223
16:31:34.740,32746,-0.86,-0.59,-0.16,10.56,3224
16:31:34.743,32756,-0.84,-0.61,-0.15,10.47,3225
16:31:34.753,32766,-0.81,-0.66,-0.16,10.51,3226
16:31:34.772,32776,-0.81,-0.68,-0.17,10.72,3227
16:31:34.773,32786,-0.83,-0.65,-0.17,10.67,3228
16:31:34.786,32796,-0.83,-0.61,-0.15,10.41,3229
16:31:34.795,32806,-0.82,-0.57,-0.14,10.03,3230
16:31:34.805,32816,-0.83,-0.58,-0.19,10.25,3231
16:31:34.816,32826,-0.84,-0.62,-0.15,10.55,3232
16:31:34.825,32836,-0.88,-0.65,-0.06,10.97,3233
16:31:34.835,32846,-0.94,-0.66,-0.03,11.47,3234
16:31:34.842,32856,-1.01,-0.61,0.01,11.81,3235
16:31:34.852,32866,-1.05,-0.59,-0.00,12.04,3236
16:31:34.906,32876,-1.07,-0.54,-0.04,11.99,3237
16:31:34.906,32886,-1.12,-0.50,-0.10,12.28,3238
16:31:34.907,32896,-1.17,-0.52,-0.11,12.83,3239
16:31:34.908,32906,-1.24,-0.54,-0.14,13.55,3240
16:31:34.909,32916,-1.29,-0.56,-0.18,14.15,3241
16:31:34.946,32926,-1.41,-0.60,-0.34,15.69,3242
16:31:34.947,32936,-1.48,-0.58,-0.54,16.80,3243
16:31:34.948,32946,-1.43,-0.60,-0.52,16.38,3244
16:31:34.949,32956,-1.29,-0.72,-0.33,15.11,3245
16:31:34.988,32966,-1.16,-0.85,-0.23,14.57,3246
16:31:34.989,32976,-1.01,-0.98,-0.03,14.12,3247
16:31:34.990,32986,-0.94,-1.09,0.18,14.51,3248
16:31:34.992,32996,-0.89,-1.14,0.31,14.77,3249
16:31:34.993,33006,-0.87,-1.18,0.38,15.09,3250
16:31:35.028,33016,-0.79,-1.17,0.59,15.31,3251
16:31:35.029,33026,-0.68,-1.09,0.77,14.97,3252
16:31:35.032,33036,-0.60,-0.96,0.75,13.55,3253
16:31:35.033,33046,-0.44,-0.86,0.94,13.49,3254
16:31:35.071,33056,-0.25,-0.84,1.31,15.74,3255
16:31:35.072,33066,-0.27,-0.76,1.21,14.55,3256
16:31:35.072,33076,-0.53,-0.52,0.70,10.24,3257
16:31:35.073,33086,-0.68,-0.47,0.51,9.72,3258
16:31:35.096,33096,-0.63,-0.59,0.68,11.02,3259
16:31:35.097,33106,-0.52,-0.74,0.68,11.32,3260
16:31:35.102,33116,-0.37,-0.81,0.66,11.07,3261
16:31:35.120,33126,-0.16,-0.82,0.64,10.51,3262
16:31:35.127,33136,-0.00,-0.78,0.61,9.92,3263
16:31:35.137,33146,-0.01,-0.68,0.59,9.00,3264
16:31:35.143,33156,-0.12,-0.57,0.66,8.82,3265
16:31:35.152,33166,-0.26,-0.50,0.69,8.85,3266
16:31:35.162,33176,-0.35,-0.42,0.69,8.84,3267
16:31:35.177,33186,-0.36,-0.33,0.67,8.30,3268
16:31:35.187,33196,-0.31,-0.30,0.69,8.17,3269
16:31:35.196,33206,-0.25,-0.30,0.71,8.12,3270
16:31:35.202,33216,-0.21,-0.31,0.72,8.14,3271
16:31:35.214,33226,-0.18,-0.33,0.71,8.05,3272
16:31:35.231,33236,-0.22,-0.36,0.68,8.00,3273
16:31:35.234,33246,-0.33,-0.38,0.67,8.33,3274
16:31:35.266,33256,-0.42,-0.38,0.66,8.75,3275
16:31:35.270,33266,-0.48,-0.37,0.61,8.54,3276
16:31:35.273,33276,-0.47,-0.40,0.52,8.06,3277
16:31:35.303,33286,-0.42,-0.38,0.50,7.59,3278
16:31:35.305,33296,-0.40,-0.44,0.51,7.85,3279
16:31:35.306,33306,-0.41,-0.48,0.44,7.68,3280
16:31:35.322,33316,-0.45,-0.60,0.40,8.46,3281
16:31:35.324,33326,-0.53,-0.76,0.39,10.04,3282
16:31:35.325,33336,-0.62,-0.77,0.29,10.32,3283
16:31:35.332,33346,-0.69,-0.67,0.21,9.86,3284
16:31:35.341,33356,-0.68,-0.51,0.22,8.78,3285
16:31:35.352,33366,-0.79,-0.51,0.19,9.66,3286
16:31:35.362,33376,-0.91,-0.56,0.20,10.84,3287
16:31:35.372,33386,-0.88,-0.60,0.21,10.85,3288
16:31:35.382,33396,-0.76,-0.48,0.14,9.08,3289
16:31:35.392,33406,-0.75,-0.24,-0.19,8.12,3290
16:31:35.409,33416,-0.71,0.04,-0.53,8.89,3291
16:31:35.413,33426,-0.77,0.16,-0.82,11.35,3292
16:31:35.421,33436,-0.76,0.18,-1.00,12.66,3293
16:31:35.433,33446,-0.66,0.03,-1.00,11.97,3294
16:31:35.441,33456,-0.57,-0.21,-0.76,9.72,3295
16:31:35.453,33466,-0.42,-0.43,-0.50,7.85,3296
16:31:35.461,33476,-0.27,-0.56,-0.21,6.61,3297
16:31:35.476,33486,-0.20,-0.61,0.06,6.46,3298
16:31:35.481,33496,-0.52,-0.73,0.05,8.99,3299
16:31:35.491,33506,-0.95,-0.85,0.05,12.77,3300
16:31:35.505,33516,-1.32,-0.99,0.02,16.53,3301
16:31:35.516,33526,-1.74,-0.99,-0.02,20.05,3302
16:31:35.527,33536,-1.89,-0.44,-0.23,19.54,3303
16:31:35.531,33546,-2.13,0.20,-0.31,21.57,3304
16:31:35.541,33556,-1.89,0.21,-0.59,19.92,3305
16:31:35.551,33566,-1.31,-0.35,-0.15,13.65,3306
16:31:35.562,33576,-0.86,-0.73,0.04,11.28,3307
16:31:35.571,33586,-0.74,-0.64,-0.08,9.77,3308
16:31:35.581,33596,-0.76,-0.64,0.10,10.01,3309
16:31:35.591,33606,-0.57,-0.81,0.48,11.01,3310
16:31:35.605,33616,-0.58,-0.87,0.44,11.33,3311
16:31:35.616,33626,-0.37,-0.87,0.72,11.88,3312
16:31:35.621,33636,-0.56,-0.63,0.50,9.73,3313
16:31:35.631,33646,-0.77,-0.58,0.37,10.35,3314
16:31:35.649,33656,-0.97,-0.57,0.27,11.58,3315
16:31:35.652,33666,-1.01,-0.66,0.25,12.33,3316
16:31:35.690,33676,-0.93,-0.76,0.22,12.15,3317
16:31:35.691,33686,-0.74,-0.85,0.13,11.38,3318
16:31:35.692,33696,-0.60,-0.96,0.10,11.36,3319
16:31:35.694,33706,-0.49,-1.04,0.08,11.57,3320
16:31:35.731,33716,-0.42,-1.07,0.03,11.49,3321
16:31:35.732,33726,-0.47,-1.03,0.03,11.36,3322
16:31:35.734,33736,-0.66,-0.92,0.09,11.38,3323
16:31:35.735,33746,-0.82,-0.80,0.12,11.52,3324
16:31:35.772,33756,-0.93,-0.60,0.12,11.17,3325
16:31:35.772,33766,-1.00,-0.47,0.12,11.12,3326
16:31:35.774,33776,-0.92,-0.49,0.12,10.56,3327
16:31:35.775,33786,-0.81,-0.60,0.05,10.08,3328
16:31:35.813,33796,-0.76,-0.69,0.00,10.31,3329
16:31:35.814,33806,-0.72,-0.79,-0.03,10.66,3330
16:31:35.815,33816,-0.68,-0.83,-0.07,10.70,3331
16:31:35.816,33826,-0.69,-0.79,-0.07,10.50,3332
16:31:35.845,33836,-0.70,-0.78,-0.07,10.48,3333
16:31:35.847,33846,-0.71,-0.73,-0.08,10.25,3334
16:31:35.848,33856,-0.78,-0.64,-0.07,10.12,3335
16:31:35.851,33866,-0.84,-0.60,-0.03,10.36,3336
16:31:35.886,33876,-0.88,-0.58,0.01,10.57,3337
16:31:35.987,33886,-0.91,-0.57,-0.01,10.72,3338
16:31:35.988,33896,-0.88,-0.61,-0.02,10.66,3339
16:31:35.989,33906,-0.85,-0.64,-0.04,10.64,3340
16:31:35.990,33916,-0.80,-0.67,-0.03,10.46,3341
16:31:35.991,33926,-0.78,-0.69,-0.03,10.39,3342
16:31:35.994,33936,-0.76,-0.68,-0.05,10.22,3343
16:31:35.998,33946,-0.79,-0.65,-0.05,10.24,3344
16:31:35.998,33956,-0.81,-0.66,-0.05,10.43,3345
16:31:35.998,33966,-0.84,-0.64,-0.08,10.58,3346
16:31:35.998,33976,-0.85,-0.64,-0.07,10.63,3347
16:31:35.998,33986,-0.86,-0.66,-0.04,10.81,3348
16:31:35.998,33996,-0.81,-0.67,-0.05,10.55,3349
16:31:35.998,34006,-0.79,-0.65,-0.07,10.31,3350
16:31:36.001,34016,-0.81,-0.62,-0.05,10.18,3351
16:31:36.013,34026,-0.85,-0.58,-0.04,10.25,3352
16:31:36.029,34036,-0.87,-0.57,-0.04,10.41,3353
16:31:36.033,34046,-0.86,-0.58,-0.04,10.36,3354
16:31:36.041,34056,-0.82,-0.62,-0.04,10.30,3355
16:31:36.056,34066,-0.78,-0.64,-0.06,10.12,3356
16:31:36.064,34076,-0.76,-0.65,-0.04,10.03,3357
16:31:36.071,34086,-0.81,-0.64,-0.01,10.35,3358
16:31:36.081,34096,-0.88,-0.65,0.00,10.93,3359
16:31:36.099,34106,-0.94,-0.66,0.04,11.48,3360
16:31:36.102,34116,-0.90,-0.66,0.04,11.17,3361
16:31:36.113,34126,-0.87,-0.63,-0.00,10.70,3362
16:31:36.127,34136,-0.82,-0.61,-0.05,10.27,3363
16:31:36.131,34146,-0.82,-0.60,-0.10,10.19,3364
16:31:36.144,34156,-0.84,-0.59,-0.12,10.36,3365
16:31:36.152,34166,-0.89,-0.59,-0.13,10.81,3366
16:31:36.163,34176,-0.96,-0.61,-0.12,11.39,3367
16:31:36.172,34186,-1.00,-0.63,-0.11,11.82,3368
16:31:36.181,34196,-1.04,-0.61,-0.13,12.09,3369
16:31:36.193,34206,-1.08,-0.55,-0.15,12.20,3370
16:31:36.203,34216,-1.10,-0.50,-0.18,12.19,3371
16:31:36.220,34226,-1.06,-0.49,-0.19,11.84,3372
16:31:36.221,34236,-1.07,-0.53,-0.17,12.10,3373
16:31:36.231,34246,-1.22,-0.61,-0.11,13.71,3374
16:31:36.241,34256,-1.32,-0.65,-0.04,14.76,3375
16:31:36.252,34266,-1.26,-0.62,-0.03,14.05,3376
16:31:36.261,34276,-1.19,-0.53,-0.09,13.06,3377
16:31:36.273,34286,-1.21,-0.48,-0.16,13.06,3378
16:31:36.284,34296,-1.22,-0.57,-0.13,13.54,3379
16:31:36.293,34306,-1.14,-0.77,-0.01,13.75,3380
16:31:36.306,34316,-1.01,-0.96,0.14,13.98,3381
16:31:36.311,34326,-0.88,-1.10,0.29,14.37,3382
16:31:36.321,34336,-0.75,-1.19,0.45,14.76,3383
16:31:36.365,34346,-0.71,-1.18,0.51,14.69,3384
16:31:36.368,34356,-0.65,-1.07,0.49,13.42,3385
16:31:36.369,34366,-0.62,-0.92,0.52,12.23,3386
16:31:36.370,34376,-0.57,-0.85,0.66,12.20,3387
16:31:36.373,34386,-0.54,-0.85,0.75,12.55,3388
16:31:36.402,34396,-0.39,-0.84,1.00,13.63,3389
16:31:36.404,34406,-0.18,-0.81,1.24,14.97,3390
16:31:36.405,34416,-0.06,-0.65,1.14,13.17,3391
16:31:36.444,34426,-0.19,-0.38,0.69,8.12,3392
16:31:36.446,34436,-0.36,-0.46,0.41,7.13,3393
16:31:36.448,34446,-0.54,-0.69,0.65,10.89,3394
16:31:36.449,34456,-0.52,-0.68,0.67,10.84,3395
16:31:36.485,34466,-0.43,-0.69,0.57,9.93,3396
16:31:36.486,34476,-0.14,-0.72,0.57,9.31,3397
16:31:36.488,34486,0.02,-0.67,0.59,8.91,3398
16:31:36.490,34496,-0.05,-0.52,0.59,7.87,3399
16:31:36.526,34506,-0.18,-0.41,0.58,7.31,3400
16:31:36.528,34516,-0.32,-0.31,0.57,7.24,3401
16:31:36.531,34526,-0.46,-0.30,0.62,8.28,3402
16:31:36.531,34536,-0.58,-0.29,0.66,9.23,3403
16:31:36.532,34546,-0.64,-0.30,0.66,9.63,3404
16:31:36.564,34556,-0.54,-0.37,0.66,9.33,3405
16:31:36.565,34566,-0.41,-0.43,0.64,8.74,3406
16:31:36.566,34576,-0.32,-0.40,0.62,8.09,3407
16:31:36.573,34586,-0.40,-0.39,0.60,8.16,3408
16:31:36.586,34596,-0.46,-0.42,0.60,8.64,3409
16:31:36.616,34606,-0.49,-0.44,0.58,8.82,3410
16:31:36.618,34616,-0.47,-0.47,0.53,8.52,3411
16:31:36.632,34626,-0.39,-0.53,0.49,8.23,3412
16:31:36.633,34636,-0.34,-0.61,0.46,8.39,3413
16:31:36.634,34646,-0.37,-0.69,0.42,8.92,3414
16:31:36.663,34656,-0.41,-0.69,0.38,8.90,3415
16:31:36.664,34666,-0.45,-0.64,0.36,8.64,3416
16:31:36.665,34676,-0.49,-0.54,0.24,7.70,3417
16:31:36.672,34686,-0.58,-0.52,0.23,8.10,3418
16:31:36.684,34696,-0.67,-0.52,0.30,8.96,3419
16:31:36.694,34706,-0.76,-0.51,0.32,9.64,3420
16:31:36.704,34716,-0.77,-0.51,0.34,9.85,3421
16:31:36.716,34726,-0.81,-0.52,0.33,10.18,3422
16:31:36.723,34736,-0.83,-0.53,0.33,10.39,3423
16:31:36.732,34746,-0.85,-0.51,0.27,10.30,3424
16:31:36.742,34756,-0.93,-0.49,0.10,10.57,3425
16:31:36.753,34766,-0.95,-0.40,-0.01,10.28,3426
16:31:36.761,34776,-0.94,-0.33,-0.08,9.96,3427
16:31:36.772,34786,-0.93,-0.23,-0.14,9.65,3428
16:31:36.782,34796,-0.92,-0.16,-0.34,9.88,3429
16:31:36.791,34806,-0.89,-0.09,-0.62,10.89,3430
16:31:36.806,34816,-0.85,-0.05,-1.02,13.28,3431
16:31:36.811,34826,-0.68,0.03,-1.16,13.50,3432
16:31:36.821,34836,-0.59,0.08,-1.19,13.28,3433
16:31:36.832,34846,-0.60,-0.07,-0.80,10.02,3434
16:31:36.850,34856,-0.62,-0.26,-0.52,8.51,3435
16:31:36.852,34866,-0.62,-0.50,-0.23,8.28,3436
16:31:36.866,34876,-0.57,-0.62,-0.06,8.45,3437
16:31:36.872,34886,-0.71,-0.75,-0.10,10.44,3438
16:31:36.881,34896,-0.80,-0.85,-0.08,11.68,3439
16:31:36.899,34906,-0.97,-0.90,-0.06,13.24,3440
16:31:36.902,34916,-1.21,-0.80,-0.12,14.61,3441
16:31:36.912,34926,-1.30,-0.61,-0.26,14.56,3442
16:31:36.923,34936,-1.32,-0.34,-0.38,14.16,3443
16:31:36.939,34946,-1.58,-0.02,-0.47,16.52,3444
16:31:36.941,34956,-1.68,0.12,-0.52,17.60,3445
16:31:36.951,34966,-1.58,-0.28,0.02,16.03,3446
16:31:36.980,34976,-1.10,-0.75,0.18,13.39,3447
16:31:36.983,34986,-0.71,-0.79,-0.08,10.62,3448
16:31:36.983,34996,-0.43,-0.76,-0.12,8.83,3449
16:31:36.994,35006,-0.28,-0.89,0.25,9.69,3450
16:31:37.004,35016,-0.28,-1.00,0.51,11.54,3451
16:31:37.014,35026,-0.58,-1.02,0.33,12.23,3452
16:31:37.026,35036,-0.62,-0.67,0.42,10.05,3453
16:31:37.032,35046,-0.84,-0.46,0.45,10.53,3454
16:31:37.041,35056,-1.06,-0.38,0.42,12.01,3455
16:31:37.051,35066,-1.32,-0.28,0.31,13.87,3456
16:31:37.061,35076,-1.30,-0.29,0.22,13.51,3457
16:31:37.073,35086,-0.97,-0.56,0.09,11.27,3458
16:31:37.086,35096,-0.65,-0.87,0.02,10.88,3459
16:31:37.091,35106,-0.47,-1.05,-0.00,11.49,3460
16:31:37.133,35116,-0.39,-1.16,-0.01,12.27,3461
16:31:37.134,35126,-0.43,-1.11,-0.07,11.95,3462
16:31:37.135,35136,-0.61,-0.87,-0.06,10.68,3463
16:31:37.136,35146,-0.71,-0.82,0.02,10.90,3464
16:31:37.170,35156,-0.80,-0.79,0.07,11.27,3465
16:31:37.171,35166,-0.87,-0.70,0.08,11.19,3466
16:31:37.173,35176,-0.92,-0.63,0.12,11.20,3467
16:31:37.174,35186,-0.92,-0.60,0.15,11.07,3468
16:31:37.212,35196,-0.88,-0.63,0.12,10.86,3469
16:31:37.213,35206,-0.86,-0.62,0.10,10.66,3470
16:31:37.217,35216,-0.85,-0.64,0.08,10.64,3471
16:31:37.218,35226,-0.80,-0.69,0.06,10.64,3472
16:31:37.254,35236,-0.75,-0.77,0.04,10.72,3473
16:31:37.254,35246,-0.73,-0.77,0.01,10.59,3474
16:31:37.298,35256,-0.73,-0.75,0.00,10.53,3475
16:31:37.300,35266,-0.76,-0.72,0.02,10.43,3476
16:31:37.300,35276,-0.79,-0.65,-0.01,10.21,3477
16:31:37.346,35286,-0.83,-0.59,-0.03,10.21,3478
16:31:37.350,35296,-0.85,-0.58,-0.04,10.32,3479
16:31:37.350,35306,-0.83,-0.63,-0.05,10.38,3480
16:31:37.350,35316,-0.78,-0.69,-0.09,10.43,3481
16:31:37.352,35326,-0.76,-0.72,-0.09,10.53,3482
16:31:37.352,35336,-0.76,-0.71,-0.06,10.40,3483
16:31:37.352,35346,-0.80,-0.66,-0.07,10.44,3484
16:31:37.352,35356,-0.81,-0.64,-0.05,10.37,3485
16:31:37.354,35366,-0.82,-0.61,-0.05,10.26,3486
16:31:37.367,35376,-0.82,-0.61,-0.06,10.22,3487
16:31:37.372,35386,-0.82,-0.62,-0.11,10.37,3488
16:31:37.382,35396,-0.84,-0.64,-0.12,10.58,3489
16:31:37.392,35406,-0.86,-0.63,-0.17,10.77,3490
16:31:37.402,35416,-0.86,-0.61,-0.19,10.73,3491
16:31:37.414,35426,-0.85,-0.58,-0.21,10.51,3492
16:31:37.428,35436,-0.85,-0.57,-0.23,10.48,3493
16:31:37.434,35446,-0.91,-0.52,-0.22,10.70,3494
16:31:37.442,35456,-0.96,-0.49,-0.23,11.03,3495
16:31:37.457,35466,-0.92,-0.52,-0.22,10.83,3496
16:31:37.462,35476,-0.85,-0.60,-0.22,10.60,3497
16:31:37.479,35486,-0.78,-0.67,-0.18,10.47,3498
16:31:37.482,35496,-0.78,-0.72,-0.14,10.73,3499
16:31:37.492,35506,-0.82,-0.73,-0.11,11.08,3500
16:31:37.506,35516,-0.84,-0.68,-0.09,10.83,3501
16:31:37.511,35526,-0.84,-0.62,-0.07,10.40,3502
16:31:37.521,35536,-0.85,-0.59,-0.03,10.29,3503
16:31:37.535,35546,-0.90,-0.57,-0.01,10.66,3504
16:31:37.545,35556,-0.92,-0.55,0.03,10.70,3505
16:31:37.551,35566,-0.91,-0.61,-0.01,10.96,3506
16:31:37.561,35576,-0.85,-0.70,-0.01,11.07,3507
16:31:37.574,35586,-0.89,-0.74,0.02,11.53,3508
16:31:37.586,35596,-0.94,-0.74,0.04,11.98,3509
16:31:37.592,35606,-1.01,-0.67,0.01,12.16,3510
16:31:37.608,35616,-1.04,-0.58,-0.02,11.95,3511
16:31:37.611,35626,-1.06,-0.51,-0.06,11.84,3512
16:31:37.627,35636,-1.12,-0.48,-0.08,12.20,3513
16:31:37.631,35646,-1.21,-0.50,-0.13,13.11,3514
16:31:37.648,35656,-1.33,-0.51,-0.30,14.57,3515
16:31:37.651,35666,-1.40,-0.53,-0.41,15.54,3516
16:31:37.663,35676,-1.47,-0.59,-0.52,16.68,3517
16:31:37.673,35686,-1.41,-0.59,-0.48,16.02,3518
16:31:37.684,35696,-1.38,-0.59,-0.40,15.57,3519
16:31:37.691,35706,-1.26,-0.70,-0.32,14.79,3520
16:31:37.707,35716,-1.08,-0.85,-0.12,13.82,3521
16:31:37.711,35726,-0.93,-1.02,0.10,13.83,3522
16:31:37.726,35736,-0.81,-1.17,0.31,14.59,3523
16:31:37.731,35746,-0.72,-1.20,0.38,14.48,3524
16:31:37.742,35756,-0.68,-1.19,0.46,14.49,3525
16:31:37.754,35766,-0.62,-1.15,0.67,14.66,3526
16:31:37.764,35776,-0.62,-1.03,0.88,14.87,3527
16:31:37.771,35786,-0.67,-0.94,0.93,14.84,3528
16:31:37.783,35796,-0.51,-0.90,1.17,15.62,3529
16:31:37.792,35806,-0.29,-0.83,1.47,17.14,3530
16:31:37.804,35816,-0.29,-0.52,1.17,13.16,3531
16:31:37.814,35826,-0.33,-0.25,0.73,8.41,3532
16:31:37.821,35836,-0.37,-0.32,0.67,8.32,3533
16:31:37.835,35846,-0.45,-0.60,0.76,10.69,3534
16:31:37.875,35856,-0.42,-0.78,0.61,10.76,3535
16:31:37.877,35866,-0.35,-0.85,0.61,11.04,3536
16:31:37.880,35876,-0.17,-0.77,0.63,10.09,3537
16:31:37.881,35886,0.01,-0.73,0.55,9.12,3538
16:31:37.915,35896,0.06,-0.63,0.61,8.79,3539
16:31:38.070,35906,-0.03,-0.49,0.63,8.00,3540
16:31:38.072,35916,-0.20,-0.35,0.60,7.24,3541
16:31:38.073,35926,-0.32,-0.29,0.56,7.05,3542
16:31:38.074,35936,-0.42,-0.25,0.63,7.99,3543
16:31:38.075,35946,-0.43,-0.24,0.70,8.60,3544
16:31:38.078,35956,-0.40,-0.23,0.76,8.94,3545
16:31:38.078,35966,-0.36,-0.21,0.76,8.69,3546
16:31:38.079,35976,-0.32,-0.25,0.62,7.39,3547
16:31:38.080,35986,-0.39,-0.27,0.55,7.24,3548
16:31:38.081,35996,-0.51,-0.26,0.53,7.80,3549
16:31:38.082,36006,-0.55,-0.32,0.51,8.13,3550
16:31:38.085,36016,-0.49,-0.41,0.55,8.45,3551
16:31:38.088,36026,-0.42,-0.50,0.58,8.70,3552
16:31:38.088,36036,-0.39,-0.58,0.51,8.64,3553
16:31:38.088,36046,-0.37,-0.61,0.37,8.02,3554
16:31:38.088,36056,-0.41,-0.64,0.39,8.56,3555
16:31:38.088,36066,-0.65,-0.77,0.45,11.05,3556
16:31:38.088,36076,-0.74,-0.86,0.44,12.17,3557
16:31:38.088,36086,-0.69,-0.80,0.34,11.09,3558
16:31:38.088,36096,-0.63,-0.67,0.14,9.35,3559
16:31:38.092,36106,-0.70,-0.60,0.02,9.21,3560
16:31:38.101,36116,-0.81,-0.58,0.01,10.01,3561
16:31:38.115,36126,-0.85,-0.56,0.09,10.19,3562
16:31:38.125,36136,-0.87,-0.40,-0.05,9.58,3563
16:31:38.131,36146,-0.87,-0.13,-0.29,9.21,3564
16:31:38.148,36156,-0.87,0.09,-0.57,10.38,3565
16:31:38.151,36166,-0.87,0.20,-0.82,12.12,3566
16:31:38.161,36176,-0.78,0.19,-1.04,13.10,3567
16:31:38.172,36186,-0.71,0.06,-1.09,13.04,3568
16:31:38.181,36196,-0.66,-0.06,-0.80,10.38,3569
16:31:38.192,36206,-0.63,-0.20,-0.49,8.22,3570
16:31:38.208,36216,-0.53,-0.38,-0.23,6.95,3571
16:31:38.211,36226,-0.41,-0.51,-0.04,6.58,3572
16:31:38.226,36236,-0.34,-0.60,0.16,7.12,3573
16:31:38.231,36246,-0.65,-0.83,0.09,10.55,3574
16:31:38.260,36256,-0.90,-0.89,0.13,12.75,3575
16:31:38.261,36266,-1.16,-0.96,0.04,15.04,3576
16:31:38.262,36276,-1.48,-1.01,0.07,17.93,3577
16:31:38.275,36286,-1.70,-0.58,-0.10,17.99,3578
16:31:38.287,36296,-1.87,-0.06,-0.30,18.89,3579
16:31:38.291,36306,-1.76,0.12,-0.39,18.04,3580
16:31:38.301,36316,-1.31,-0.20,-0.12,13.27,3581
16:31:38.311,36326,-0.89,-0.76,0.09,11.72,3582
16:31:38.321,36336,-0.73,-0.76,-0.03,10.57,3583
16:31:38.337,36346,-0.62,-0.68,0.14,9.25,3584
16:31:38.341,36356,-0.55,-0.68,0.40,9.68,3585
16:31:38.351,36366,-0.66,-0.66,0.33,9.91,3586
16:31:38.364,36376,-0.60,-0.64,0.30,9.34,3587
16:31:38.373,36386,-0.55,-0.75,0.42,10.23,3588
16:31:38.382,36396,-0.72,-0.73,0.25,10.56,3589
16:31:38.393,36406,-0.89,-0.70,0.10,11.37,3590
16:31:38.402,36416,-0.91,-0.81,0.12,12.21,3591
16:31:38.411,36426,-0.81,-0.85,0.12,11.81,3592
16:31:38.421,36436,-0.69,-0.87,0.10,11.16,3593
16:31:38.431,36446,-0.63,-0.86,0.08,10.72,3594
16:31:38.448,36456,-0.64,-0.81,0.05,10.34,3595
16:31:38.452,36466,-0.71,-0.71,0.04,10.06,3596
16:31:38.462,36476,-0.78,-0.69,0.07,10.45,3597
16:31:38.477,36486,-0.79,-0.75,0.13,10.95,3598
16:31:38.485,36496,-0.80,-0.78,0.14,11.28,3599
16:31:38.494,36506,-0.80,-0.77,0.15,11.18,3600
16:31:38.504,36516,-0.80,-0.70,0.13,10.69,3601
16:31:38.513,36526,-0.81,-0.66,0.10,10.45,3602
16:31:38.530,36536,-0.82,-0.65,0.09,10.51,3603
16:31:38.532,36546,-0.85,-0.65,0.11,10.73,3604
16:31:38.544,36556,-0.87,-0.63,0.10,10.76,3605
16:31:38.552,36566,-0.83,-0.64,0.06,10.52,3606
16:31:38.563,36576,-0.78,-0.68,0.03,10.39,3607
16:31:38.606,36586,-0.74,-0.74,0.00,10.42,3608
16:31:38.607,36596,-0.71,-0.78,-0.01,10.51,3609
16:31:38.608,36606,-0.70,-0.76,-0.04,10.36,3610
16:31:38.610,36616,-0.75,-0.69,-0.05,10.18,3611
16:31:38.653,36626,-0.82,-0.63,-0.05,10.40,3612
16:31:38.679,36636,-0.88,-0.59,-0.04,10.62,3613
16:31:38.681,36646,-0.86,-0.64,-0.04,10.72,3614
16:31:38.682,36656,-0.82,-0.66,-0.05,10.55,3615
16:31:38.684,36666,-0.77,-0.70,-0.02,10.38,3616
16:31:38.714,36676,-0.73,-0.72,-0.05,10.23,3617
16:31:38.715,36686,-0.71,-0.72,-0.08,10.14,3618
16:31:38.716,36696,-0.76,-0.69,-0.08,10.30,3619
16:31:38.718,36706,-0.79,-0.70,-0.06,10.54,3620
16:31:38.720,36716,-0.81,-0.68,-0.07,10.57,3621
16:31:38.755,36726,-0.80,-0.65,-0.08,10.33,3622
16:31:38.756,36736,-0.81,-0.62,-0.06,10.27,3623
16:31:38.758,36746,-0.87,-0.55,-0.10,10.34,3624
16:31:38.759,36756,-0.96,-0.45,-0.12,10.67,3625
16:31:38.759,36766,-1.04,-0.41,-0.13,11.24,3626
16:31:38.796,36776,-0.99,-0.46,-0.14,11.03,3627
16:31:38.797,36786,-0.87,-0.55,-0.17,10.42,3628
16:31:38.799,36796,-0.81,-0.64,-0.18,10.47,3629
16:31:38.799,36806,-0.79,-0.70,-0.15,10.63,3630
16:31:38.811,36816,-0.81,-0.69,-0.17,10.79,3631
16:31:38.812,36826,-0.86,-0.64,-0.10,10.80,3632
16:31:38.827,36836,-0.93,-0.60,-0.05,11.06,3633
16:31:38.832,36846,-0.95,-0.55,-0.04,11.00,3634
16:31:38.843,36856,-0.92,-0.57,-0.05,10.86,3635
16:31:38.854,36866,-0.85,-0.62,-0.08,10.54,3636
16:31:38.864,36876,-0.79,-0.68,-0.10,10.46,3637
16:31:38.875,36886,-0.87,-0.67,-0.07,11.02,3638
16:31:38.884,36896,-0.96,-0.66,-0.03,11.66,3639
16:31:38.894,36906,-1.05,-0.63,-0.03,12.23,3640
16:31:38.903,36916,-1.13,-0.56,-0.08,12.63,3641
16:31:38.912,36926,-1.18,-0.51,-0.10,12.86,3642
16:31:38.926,36936,-1.22,-0.51,-0.15,13.27,3643
16:31:38.934,36946,-1.25,-0.52,-0.16,13.60,3644
16:31:38.945,36956,-1.31,-0.56,-0.24,14.46,3645
16:31:38.955,36966,-1.47,-0.57,-0.42,16.34,3646
16:31:38.964,36976,-1.58,-0.62,-0.54,17.79,3647
16:31:38.976,36986,-1.53,-0.63,-0.54,17.39,3648
16:31:38.986,36996,-1.41,-0.64,-0.45,16.11,3649
16:31:38.995,37006,-1.18,-0.80,-0.28,14.54,3650
16:31:39.004,37016,-0.99,-0.99,-0.01,14.03,3651
16:31:39.013,37026,-0.90,-1.13,0.18,14.54,3652
16:31:39.022,37036,-0.82,-1.19,0.34,14.85,3653
16:31:39.034,37046,-0.79,-1.24,0.37,15.16,3654
16:31:39.044,37056,-0.75,-1.19,0.52,14.97,3655
16:31:39.057,37066,-0.70,-1.06,0.71,14.54,3656
16:31:39.068,37076,-0.69,-0.94,0.92,14.88,3657
16:31:39.072,37086,-0.55,-0.90,1.21,16.10,3658
16:31:39.083,37096,-0.27,-0.92,1.60,18.65,3659
16:31:39.098,37106,-0.34,-0.69,1.19,14.21,3660
16:31:39.102,37116,-0.47,-0.38,0.67,9.04,3661
16:31:39.119,37126,-0.53,-0.34,0.63,8.93,3662
16:31:39.122,37136,-0.57,-0.57,0.75,10.98,3663
16:31:39.133,37146,-0.53,-0.76,0.70,11.61,3664
16:31:39.147,37156,-0.38,-0.84,0.68,11.49,3665
16:31:39.153,37166,-0.12,-0.79,0.67,10.44,3666
16:31:39.169,37176,0.06,-0.67,0.62,9.11,3667
16:31:39.172,37186,0.09,-0.55,0.61,8.27,3668
16:31:39.185,37196,-0.02,-0.46,0.63,7.80,3669
16:31:39.195,37206,-0.21,-0.34,0.64,7.52,3670
16:31:39.203,37216,-0.32,-0.29,0.65,7.76,3671
16:31:39.213,37226,-0.34,-0.30,0.71,8.47,3672
16:31:39.228,37236,-0.36,-0.24,0.77,8.80,3673
16:31:39.232,37246,-0.25,-0.21,0.74,8.13,3674
16:31:39.248,37256,-0.17,-0.30,0.65,7.37,3675
16:31:39.252,37266,-0.26,-0.34,0.57,7.11,3676
16:31:39.262,37276,-0.42,-0.33,0.56,7.78,3677
16:31:39.307,37286,-0.52,-0.33,0.61,8.67,3678
16:31:39.307,37296,-0.53,-0.37,0.61,8.90,3679
16:31:39.309,37306,-0.43,-0.43,0.64,8.80,3680
16:31:39.311,37316,-0.38,-0.49,0.68,9.21,3681
16:31:39.315,37326,-0.40,-0.57,0.55,8.88,3682
16:31:39.349,37336,-0.37,-0.57,0.30,7.38,3683
16:31:39.352,37346,-0.34,-0.68,0.21,7.91,3684
16:31:39.354,37356,-0.43,-0.84,0.27,9.85,3685
16:31:39.391,37366,-0.55,-0.84,0.32,10.53,3686
16:31:39.394,37376,-0.60,-0.79,0.36,10.53,3687
16:31:39.396,37386,-0.68,-0.73,0.28,10.35,3688
16:31:39.432,37396,-0.79,-0.58,0.19,9.99,3689
16:31:39.434,37406,-0.87,-0.48,0.25,10.25,3690
16:31:39.435,37416,-0.89,-0.32,0.20,9.65,3691
16:31:39.508,37426,-0.89,-0.08,-0.01,8.92,3692
16:31:39.508,37436,-0.89,0.12,-0.28,9.41,3693
16:31:39.508,37446,-0.97,0.19,-0.54,11.27,3694
16:31:39.510,37456,-1.00,0.09,-0.79,12.76,3695
16:31:39.510,37466,-0.87,-0.03,-0.98,13.13,3696
16:31:39.511,37476,-0.72,-0.08,-1.03,12.55,3697
16:31:39.512,37486,-0.66,-0.20,-0.83,10.76,3698
16:31:39.516,37496,-0.61,-0.27,-0.54,8.57,3699
16:31:39.517,37506,-0.54,-0.38,-0.31,7.32,3700
16:31:39.517,37516,-0.50,-0.47,-0.12,6.98,3701
16:31:39.517,37526,-0.55,-0.47,-0.01,7.19,3702
16:31:39.541,37536,-0.71,-0.57,0.04,9.09,3703
16:31:39.541,37546,-0.99,-0.66,0.05,11.92,3704
16:31:39.543,37556,-1.15,-0.79,-0.01,13.95,3705
16:31:39.553,37566,-1.39,-0.78,-0.11,16.01,3706
16:31:39.563,37576,-1.60,-0.46,-0.27,16.87,3707
16:31:39.578,37586,-1.76,-0.18,-0.37,18.10,3708
16:31:39.582,37596,-1.68,0.02,-0.44,17.41,3709
16:31:39.594,37606,-1.43,-0.14,-0.27,14.62,3710
16:31:39.605,37616,-0.98,-0.68,-0.08,11.96,3711
16:31:39.612,37626,-0.77,-0.86,-0.26,11.85,3712
16:31:39.626,37636,-0.57,-1.03,-0.08,11.86,3713
16:31:39.636,37646,-0.45,-1.09,0.33,12.22,3714
16:31:39.642,37656,-0.59,-0.82,0.40,10.89,3715
16:31:39.653,37666,-0.64,-0.63,0.38,9.71,3716
16:31:39.663,37676,-0.43,-0.49,0.76,10.02,3717
16:31:39.674,37686,-0.71,-0.48,0.62,10.58,3718
16:31:39.685,37696,-0.97,-0.46,0.39,11.43,3719
16:31:39.694,37706,-1.01,-0.65,0.29,12.40,3720
16:31:39.705,37716,-0.94,-0.86,0.18,12.88,3721
16:31:39.712,37726,-0.66,-0.98,0.05,11.82,3722
16:31:39.722,37736,-0.51,-1.07,0.02,11.80,3723
16:31:39.732,37746,-0.47,-1.08,0.03,11.84,3724
16:31:39.742,37756,-0.55,-0.93,0.02,10.84,3725
16:31:39.753,37766,-0.64,-0.78,0.04,10.15,3726
16:31:39.764,37776,-0.77,-0.73,0.11,10.64,3727
16:31:39.773,37786,-0.85,-0.68,0.14,11.00,3728
16:31:39.790,37796,-0.91,-0.63,0.13,11.17,3729
16:31:39.793,37806,-0.92,-0.56,0.12,10.86,3730
16:31:39.802,37816,-0.91,-0.54,0.11,10.67,3731
16:31:39.812,37826,-0.87,-0.60,0.07,10.59,3732
16:31:39.823,37836,-0.83,-0.67,0.04,10.63,3733
16:31:39.833,37846,-0.83,-0.70,0.03,10.84,3734
16:31:39.842,37856,-0.79,-0.73,-0.00,10.76,3735
16:31:39.852,37866,-0.72,-0.77,-0.04,10.62,3736
16:31:39.867,37876,-0.69,-0.79,-0.03,10.47,3737
16:31:39.872,37886,-0.69,-0.77,-0.02,10.30,3738
16:31:39.887,37896,-0.72,-0.72,0.02,10.22,3739
16:31:39.892,37906,-0.80,-0.64,0.04,10.19,3740
16:31:39.902,37916,-0.86,-0.56,0.04,10.30,3741
16:31:39.913,37926,-0.89,-0.55,0.05,10.49,3742
16:31:39.929,37936,-0.87,-0.59,0.04,10.58,3743
16:31:39.932,37946,-0.83,-0.65,0.02,10.56,3744
16:31:39.952,37956,-0.80,-0.70,0.02,10.59,3745
16:31:39.953,37966,-0.79,-0.71,0.03,10.59,3746
16:31:39.965,37976,-0.80,-0.66,0.01,10.40,3747
16:31:39.993,37986,-0.84,-0.60,0.02,10.29,3748
16:31:39.994,37996,-0.87,-0.58,0.03,10.41,3749
16:31:39.996,38006,-0.89,-0.57,0.02,10.62,3750
16:31:40.005,38016,-0.90,-0.59,-0.01,10.76,3751
16:31:40.014,38026,-0.91,-0.61,-0.04,10.97,3752
16:31:40.024,38036,-0.90,-0.63,-0.09,11.03,3753
16:31:40.035,38046,-0.86,-0.62,-0.13,10.68,3754
16:31:40.081,38056,-0.86,-0.60,-0.17,10.58,3755
16:31:40.081,38066,-0.87,-0.58,-0.19,10.59,3756
16:31:40.082,38076,-0.85,-0.56,-0.23,10.41,3757
16:31:40.083,38086,-0.85,-0.59,-0.23,10.60,3758
16:31:40.084,38096,-0.86,-0.58,-0.24,10.67,3759
16:31:40.121,38106,-0.94,-0.57,-0.18,11.15,3760
16:31:40.122,38116,-0.98,-0.57,-0.14,11.38,3761
16:31:40.123,38126,-0.90,-0.60,-0.15,10.92,3762
16:31:40.124,38136,-0.85,-0.59,-0.20,10.54,3763
16:31:40.163,38146,-0.83,-0.58,-0.19,10.31,3764
16:31:40.163,38156,-0.84,-0.58,-0.18,10.36,3765
16:31:40.164,38166,-0.87,-0.64,-0.15,10.86,3766
16:31:40.165,38176,-0.93,-0.69,-0.11,11.61,3767
16:31:40.203,38186,-1.04,-0.68,-0.07,12.45,3768
16:31:40.205,38196,-1.16,-0.62,-0.05,13.15,3769
16:31:40.206,38206,-1.25,-0.56,-0.10,13.69,3770
16:31:40.206,38216,-1.28,-0.52,-0.15,13.92,3771
16:31:40.237,38226,-1.32,-0.50,-0.18,14.23,3772
16:31:40.238,38236,-1.39,-0.48,-0.20,14.81,3773
16:31:40.239,38246,-1.48,-0.51,-0.32,16.04,3774
16:31:40.242,38256,-1.65,-0.53,-0.54,18.14,3775
16:31:40.272,38266,-1.63,-0.53,-0.54,17.99,3776
16:31:40.273,38276,-1.43,-0.65,-0.44,16.28,3777
16:31:40.275,38286,-1.16,-0.87,-0.24,14.72,3778
16:31:40.286,38296,-1.00,-1.07,0.01,14.61,3779
16:31:40.293,38306,-0.92,-1.22,0.18,15.41,3780
16:31:40.303,38316,-0.86,-1.26,0.39,15.77,3781
16:31:40.312,38326,-0.87,-1.22,0.52,15.88,3782
16:31:40.323,38336,-0.81,-1.07,0.62,14.77,3783
16:31:40.333,38346,-0.68,-0.92,0.91,14.60,3784
16:31:40.343,38356,-0.55,-0.84,0.95,13.79,3785
16:31:40.353,38366,-0.27,-0.80,1.38,16.19,3786
16:31:40.364,38376,-0.10,-0.78,1.56,17.50,3787
16:31:40.381,38386,-0.35,-0.53,0.97,11.59,3788
16:31:40.382,38396,-0.57,-0.36,0.56,8.74,3789
16:31:40.392,38406,-0.64,-0.43,0.62,9.88,3790
16:31:40.403,38416,-0.54,-0.64,0.72,11.11,3791
16:31:40.413,38426,-0.39,-0.66,0.77,10.85,3792
16:31:40.425,38436,-0.19,-0.68,0.69,9.86,3793
16:31:40.432,38446,0.02,-0.67,0.71,9.72,3794
16:31:40.445,38456,0.15,-0.62,0.76,9.88,3795
16:31:40.453,38466,-0.02,-0.42,0.68,7.95,3796
16:31:40.462,38476,-0.17,-0.30,0.59,6.86,3797
16:31:40.479,38486,-0.27,-0.24,0.61,7.12,3798
16:31:40.482,38496,-0.36,-0.33,0.68,8.38,3799
16:31:40.496,38506,-0.33,-0.36,0.75,8.97,3800
16:31:40.502,38516,-0.22,-0.41,0.75,8.82,3801
16:31:40.512,38526,-0.14,-0.38,0.68,7.91,3802
16:31:40.522,38536,-0.17,-0.33,0.60,7.08,3803
16:31:40.532,38546,-0.24,-0.31,0.63,7.40,3804
16:31:40.549,38556,-0.36,-0.30,0.66,8.05,3805
16:31:40.552,38566,-0.46,-0.30,0.67,8.65,3806
16:31:40.566,38576,-0.47,-0.37,0.61,8.54,3807
16:31:40.575,38586,-0.44,-0.44,0.56,8.33,3808
16:31:40.585,38596,-0.40,-0.49,0.59,8.60,3809
16:31:40.593,38606,-0.35,-0.52,0.58,8.53,3810
16:31:40.602,38616,-0.32,-0.52,0.49,7.84,3811
16:31:40.619,38626,-0.31,-0.45,0.28,6.19,3812
16:31:40.622,38636,-0.43,-0.59,0.34,8.09,3813
16:31:40.636,38646,-0.57,-0.68,0.31,9.40,3814
16:31:40.642,38656,-0.63,-0.72,0.29,10.00,3815
16:31:40.654,38666,-0.59,-0.67,0.34,9.60,3816
16:31:40.665,38676,-0.64,-0.63,0.31,9.50,3817
16:31:40.672,38686,-0.68,-0.63,0.37,10.00,3818
16:31:40.682,38696,-0.82,-0.59,0.20,10.30,3819
16:31:40.736,38706,-0.86,-0.33,0.08,9.23,3820
16:31:40.736,38716,-0.89,-0.00,-0.02,8.94,3821
16:31:40.737,38726,-1.07,0.24,-0.10,11.04,3822
16:31:40.738,38736,-1.37,0.44,-0.26,14.58,3823
16:31:40.778,38746,-1.48,0.50,-0.57,16.65,3824
16:31:40.778,38756,-1.12,0.33,-0.85,14.48,3825
16:31:40.782,38766,-0.74,0.00,-1.06,12.92,3826
16:31:40.813,38776,-0.53,-0.23,-0.98,11.40,3827
16:31:40.813,38786,-0.42,-0.36,-0.67,8.68,3828
16:31:40.814,38796,-0.44,-0.51,-0.38,7.69,3829
16:31:40.854,38806,-0.53,-0.71,-0.21,9.13,3830
16:31:40.855,38816,-0.64,-0.80,-0.04,10.26,3831
16:31:40.855,38826,-0.76,-0.78,-0.14,10.94,3832
16:31:40.895,38836,-1.37,-0.49,-0.05,14.58,3833
16:31:40.898,38846,-2.13,-0.45,0.09,21.74,3834
16:31:40.898,38856,-2.13,-0.24,0.11,21.42,3835
16:31:40.898,38866,-1.67,0.23,-0.03,16.83,3836
16:31:40.899,38876,-0.82,-0.36,-0.40,9.79,3837
16:31:40.900,38886,-0.60,-0.67,-0.22,9.32,3838
16:31:40.901,38896,-0.50,-0.99,0.17,11.18,3839
16:31:40.938,38906,-0.59,-1.06,0.29,12.46,3840
16:31:40.939,38916,-0.70,-0.85,0.15,11.12,3841
16:31:40.942,38926,-0.49,-0.88,0.30,10.50,3842
16:31:40.942,38936,-0.46,-0.95,0.50,11.73,3843
16:31:40.942,38946,-0.86,-0.86,0.35,12.64,3844
16:31:40.943,38956,-0.93,-0.69,0.36,12.10,3845
16:31:40.956,38966,-0.90,-0.55,0.32,11.05,3846
16:31:40.966,38976,-0.87,-0.56,0.20,10.54,3847
16:31:40.973,38986,-0.81,-0.65,0.11,10.46,3848
16:31:40.984,38996,-0.78,-0.73,-0.00,10.62,3849
16:31:40.997,39006,-0.72,-0.78,-0.05,10.66,3850
16:31:41.003,39016,-0.62,-0.86,-0.05,10.62,3851
16:31:41.013,39026,-0.59,-0.89,-0.09,10.69,3852
16:31:41.024,39036,-0.60,-0.88,-0.04,10.64,3853
16:31:41.041,39046,-0.69,-0.83,0.03,10.76,3854
16:31:41.042,39056,-0.72,-0.78,0.06,10.64,3855
16:31:41.052,39066,-0.76,-0.76,0.09,10.81,3856
16:31:41.066,39076,-0.81,-0.70,0.09,10.76,3857
16:31:41.077,39086,-0.87,-0.61,0.09,10.70,3858
16:31:41.086,39096,-0.97,-0.50,0.06,10.94,3859
16:31:41.096,39106,-0.99,-0.44,0.01,10.79,3860
16:31:41.102,39116,-0.92,-0.49,-0.02,10.48,3861
16:31:41.112,39126,-0.87,-0.56,-0.03,10.31,3862
16:31:41.123,39136,-0.79,-0.66,-0.01,10.32,3863
16:31:41.133,39146,-0.71,-0.77,0.01,10.46,3864
16:31:41.145,39156,-0.68,-0.77,0.04,10.28,3865
16:31:41.152,39166,-0.72,-0.71,0.06,10.10,3866
16:31:41.166,39176,-0.77,-0.63,0.05,9.95,3867
16:31:41.172,39186,-0.83,-0.57,0.03,10.10,3868
16:31:41.190,39196,-0.88,-0.56,-0.01,10.43,3869
16:31:41.192,39206,-0.88,-0.61,-0.05,10.74,3870
16:31:41.208,39216,-0.87,-0.65,-0.07,10.87,3871
16:31:41.212,39226,-0.83,-0.69,-0.03,10.77,3872
16:31:41.223,39236,-0.80,-0.69,-0.00,10.52,3873
16:31:41.235,39246,-0.78,-0.66,0.04,10.28,3874
16:31:41.244,39256,-0.80,-0.63,0.05,10.24,3875
16:31:41.255,39266,-0.88,-0.55,0.04,10.40,3876
16:31:41.266,39276,-0.91,-0.53,0.03,10.59,3877
16:31:41.280,39286,-0.85,-0.61,0.04,10.47,3878
16:31:41.296,39296,-0.85,-0.64,0.01,10.67,3879
16:31:41.298,39306,-0.82,-0.65,-0.02,10.51,3880
16:31:41.321,39316,-0.81,-0.67,-0.02,10.53,3881
16:31:41.323,39326,-0.86,-0.62,-0.02,10.58,3882
16:31:41.334,39336,-0.87,-0.59,-0.02,10.46,3883
16:31:41.336,39346,-0.85,-0.58,-0.03,10.28,3884
16:31:41.342,39356,-0.85,-0.60,-0.06,10.39,3885
16:31:41.357,39366,-0.86,-0.63,-0.07,10.64,3886
16:31:41.363,39376,-0.85,-0.67,-0.09,10.86,3887
16:31:41.374,39386,-0.84,-0.64,-0.11,10.59,3888
16:31:41.382,39396,-0.85,-0.59,-0.13,10.44,3889
16:31:41.392,39406,-0.88,-0.60,-0.13,10.73,3890
16:31:41.402,39416,-0.94,-0.58,-0.10,11.05,3891
16:31:41.412,39426,-0.94,-0.57,-0.08,10.99,3892
16:31:41.423,39436,-0.85,-0.59,-0.11,10.45,3893
16:31:41.440,39446,-0.83,-0.63,-0.13,10.51,3894
16:31:41.442,39456,-0.87,-0.65,-0.11,10.95,3895
16:31:41.482,39466,-0.96,-0.64,-0.07,11.58,3896
16:31:41.483,39476,-1.03,-0.61,-0.04,11.97,3897
16:31:41.483,39486,-1.11,-0.56,-0.03,12.44,3898
16:31:41.485,39496,-1.15,-0.54,-0.07,12.74,3899
16:31:41.524,39506,-1.18,-0.54,-0.09,13.01,3900
16:31:41.527,39516,-1.23,-0.54,-0.13,13.46,3901
16:31:41.527,39526,-1.28,-0.55,-0.16,14.00,3902
16:31:41.527,39536,-1.38,-0.59,-0.23,15.20,3903
16:31:41.564,39546,-1.47,-0.61,-0.34,16.33,3904
16:31:41.565,39556,-1.64,-0.57,-0.56,18.21,3905
16:31:41.566,39566,-1.58,-0.57,-0.58,17.75,3906
16:31:41.567,39576,-1.32,-0.73,-0.39,15.56,3907
16:31:41.605,39586,-1.13,-0.89,-0.16,14.45,3908
16:31:41.606,39596,-1.00,-1.03,0.07,14.39,3909
16:31:41.608,39606,-0.92,-1.16,0.26,15.02,3910
16:31:41.609,39616,-0.88,-1.24,0.33,15.58,3911
16:31:41.647,39626,-0.83,-1.24,0.42,15.54,3912
16:31:41.650,39636,-0.72,-1.10,0.58,14.39,3913
16:31:41.651,39646,-0.63,-0.93,0.83,13.96,3914
16:31:41.651,39656,-0.59,-0.84,0.98,14.20,3915
16:31:41.652,39666,-0.34,-0.85,1.44,17.10,3916
16:31:41.674,39676,-0.19,-0.78,1.52,17.18,3917
16:31:41.675,39686,-0.49,-0.46,0.88,11.12,3918
16:31:41.682,39696,-0.64,-0.30,0.54,8.88,3919
16:31:41.694,39706,-0.65,-0.51,0.67,10.63,3920
16:31:41.705,39716,-0.57,-0.73,0.75,11.94,3921
16:31:41.713,39726,-0.37,-0.81,0.66,11.07,3922
16:31:41.722,39736,-0.18,-0.79,0.59,10.01,3923
16:31:41.732,39746,0.05,-0.77,0.64,10.03,3924
16:31:41.750,39756,0.08,-0.65,0.63,9.12,3925
16:31:41.752,39766,-0.03,-0.53,0.65,8.39,3926
16:31:41.765,39776,-0.18,-0.44,0.67,8.18,3927
16:31:41.778,39786,-0.32,-0.38,0.64,8.13,3928
16:31:41.783,39796,-0.38,-0.37,0.68,8.66,3929
16:31:41.792,39806,-0.35,-0.37,0.76,9.10,3930
16:31:41.809,39816,-0.27,-0.35,0.73,8.53,3931
16:31:41.813,39826,-0.18,-0.34,0.74,8.36,3932
16:31:41.827,39836,-0.14,-0.34,0.71,8.03,3933
16:31:41.832,39846,-0.21,-0.33,0.69,7.92,3934
16:31:41.848,39856,-0.33,-0.30,0.65,7.90,3935
16:31:41.854,39866,-0.42,-0.27,0.56,7.48,3936
16:31:41.863,39876,-0.42,-0.33,0.46,7.08,3937
16:31:41.874,39886,-0.45,-0.40,0.46,7.53,3938
16:31:41.884,39896,-0.46,-0.40,0.47,7.77,3939
16:31:41.892,39906,-0.48,-0.41,0.41,7.48,3940
16:31:41.908,39916,-0.52,-0.57,0.42,8.82,3941
16:31:41.912,39926,-0.63,-0.74,0.42,10.57,3942
16:31:41.926,39936,-0.70,-0.85,0.33,11.46,3943
16:31:41.932,39946,-0.63,-0.83,0.27,10.77,3944
16:31:41.942,39956,-0.59,-0.78,0.18,9.89,3945
16:31:41.953,39966,-0.68,-0.68,0.11,9.71,3946
16:31:41.962,39976,-0.77,-0.54,0.06,9.41,3947
16:31:41.976,39986,-0.81,-0.34,0.12,8.82,3948
16:31:41.982,39996,-0.87,-0.14,0.01,8.83,3949
16:31:41.999,40006,-0.92,0.15,-0.29,9.78,3950
16:31:42.002,40016,-0.99,0.32,-0.75,12.81,3951
16:31:42.012,40026,-0.90,0.29,-0.99,13.69,3952
16:31:42.023,40036,-0.74,0.12,-1.12,13.50,3953
16:31:42.033,40046,-0.63,-0.15,-0.94,11.38,3954
16:31:42.043,40056,-0.53,-0.38,-0.62,8.99,3955
16:31:42.060,40066,-0.42,-0.56,-0.33,7.73,3956
16:31:42.062,40076,-0.36,-0.68,-0.14,7.79,3957
16:31:42.102,40086,-0.47,-0.75,0.03,8.88,3958
16:31:42.103,40096,-0.60,-0.76,0.02,9.63,3959
16:31:42.105,40106,-0.90,-0.67,0.01,11.20,3960
16:31:42.106,40116,-1.63,-0.55,0.08,17.22,3961
16:31:42.112,40126,-2.13,-0.43,0.17,21.76,3962
16:31:42.122,40136,-2.13,-0.01,0.08,21.27,3963
16:31:42.137,40146,-1.67,0.53,-0.20,17.58,3964
16:31:42.153,40156,-0.95,-0.07,-0.45,10.49,3965
16:31:42.162,40166,-0.76,-0.68,-0.13,10.30,3966
16:31:42.163,40176,-0.52,-0.94,0.27,11.06,3967
16:31:42.177,40186,-0.54,-1.08,0.12,12.13,3968
16:31:42.253,40196,-0.41,-0.95,0.19,10.50,3969
16:31:42.254,40206,-0.47,-0.92,0.42,11.17,3970
16:31:42.255,40216,-0.65,-0.87,0.44,11.72,3971
16:31:42.258,40226,-0.79,-0.72,0.60,12.23,3972
16:31:42.258,40236,-0.91,-0.57,0.44,11.62,3973
16:31:42.258,40246,-0.97,-0.51,0.29,11.31,3974
16:31:42.296,40256,-0.87,-0.62,0.22,10.91,3975
16:31:42.300,40266,-0.79,-0.73,0.13,10.87,3976
16:31:42.300,40276,-0.70,-0.84,0.04,10.99,3977
16:31:42.300,40286,-0.58,-0.95,0.03,11.09,3978
16:31:42.300,40296,-0.51,-1.05,0.06,11.70,3979
16:31:42.300,40306,-0.46,-1.09,0.06,11.82,3980
16:31:42.330,40316,-0.49,-1.00,0.09,11.21,3981
16:31:42.330,40326,-0.59,-0.89,0.17,10.82,3982
16:31:42.332,40336,-0.69,-0.81,0.17,10.77,3983
16:31:42.333,40346,-0.79,-0.73,0.13,10.81,3984
16:31:42.371,40356,-0.91,-0.64,0.10,11.17,3985
16:31:42.372,40366,-0.98,-0.57,0.10,11.37,3986
16:31:42.373,40376,-0.97,-0.52,0.09,11.04,3987
16:31:42.376,40386,-0.86,-0.56,0.00,10.27,3988
16:31:42.412,40396,-0.82,-0.60,-0.03,10.16,3989
16:31:42.413,40406,-0.77,-0.68,-0.03,10.29,3990
16:31:42.415,40416,-0.72,-0.75,-0.02,10.38,3991
16:31:42.416,40426,-0.69,-0.77,-0.01,10.30,3992
16:31:42.434,40436,-0.72,-0.72,0.02,10.20,3993
16:31:42.435,40446,-0.82,-0.64,0.05,10.40,3994
16:31:42.446,40456,-0.91,-0.55,0.06,10.62,3995
16:31:42.452,40466,-0.97,-0.50,0.07,10.95,3996
16:31:42.462,40476,-0.96,-0.50,0.08,10.90,3997
16:31:42.472,40486,-0.87,-0.58,0.06,10.44,3998
16:31:42.483,40496,-0.77,-0.66,0.02,10.14,3999
16:31:42.501,40506,-0.75,-0.72,0.02,10.40,4000
16:31:42.502,40516,-0.77,-0.73,0.02,10.64,4001
16:31:42.512,40526,-0.77,-0.72,0.00,10.58,4002
16:31:42.522,40536,-0.75,-0.71,0.01,10.37,4003
16:31:42.534,40546,-0.77,-0.70,-0.03,10.38,4004
16:31:42.542,40556,-0.78,-0.66,-0.06,10.29,4005
16:31:42.552,40566,-0.80,-0.64,-0.05,10.29,4006
16:31:42.562,40576,-0.83,-0.61,-0.04,10.34,4007
16:31:42.576,40586,-0.85,-0.62,-0.01,10.49,4008
16:31:42.582,40596,-0.88,-0.61,-0.02,10.73,4009
16:31:42.617,40606,-0.90,-0.58,-0.07,10.76,4010
16:31:42.630,40616,-0.90,-0.54,-0.11,10.55,4011
16:31:42.631,40626,-0.92,-0.55,-0.17,10.82,4012
16:31:42.633,40636,-0.88,-0.49,-0.24,10.39,4013
16:31:42.645,40646,-0.79,-0.63,-0.26,10.49,4014
16:31:42.646,40656,-0.79,-0.66,-0.24,10.55,4015
16:31:42.655,40666,-0.77,-0.71,-0.24,10.76,4016
16:31:42.663,40676,-0.79,-0.72,-0.23,10.91,4017
16:31:42.672,40686,-0.84,-0.66,-0.18,10.82,4018
16:31:42.683,40696,-0.90,-0.61,-0.10,10.93,4019
16:31:42.692,40706,-0.97,-0.56,-0.04,11.23,4020
16:31:42.702,40716,-0.97,-0.56,-0.02,11.21,4021
16:31:42.712,40726,-0.94,-0.57,-0.04,11.04,4022
16:31:42.722,40736,-0.90,-0.62,-0.08,10.91,4023
16:31:42.733,40746,-0.94,-0.63,-0.05,11.27,4024
16:31:42.751,40756,-1.01,-0.63,-0.04,11.92,4025
16:31:42.752,40766,-1.07,-0.60,-0.03,12.30,4026
16:31:42.766,40776,-1.12,-0.54,-0.06,12.46,4027
16:31:42.776,40786,-1.14,-0.48,-0.11,12.44,4028
16:31:42.783,40796,-1.18,-0.46,-0.15,12.79,4029
16:31:42.795,40806,-1.23,-0.47,-0.16,13.23,4030
16:31:42.802,40816,-1.32,-0.49,-0.17,14.17,4031
16:31:42.812,40826,-1.46,-0.50,-0.33,15.81,4032
16:31:42.826,40836,-1.62,-0.52,-0.56,17.93,4033
16:31:42.835,40846,-1.65,-0.55,-0.62,18.44,4034
16:31:42.843,40856,-1.49,-0.64,-0.49,16.97,4035
16:31:42.853,40866,-1.28,-0.77,-0.39,15.39,4036
16:31:42.863,40876,-1.01,-0.99,-0.09,14.17,4037
16:31:42.878,40886,-0.89,-1.19,0.18,14.98,4038
16:31:42.882,40896,-0.83,-1.32,0.38,16.00,4039
16:31:42.899,40906,-0.82,-1.35,0.46,16.43,4040
16:31:42.902,40916,-0.74,-1.24,0.52,15.35,4041
16:31:42.935,40926,-0.63,-1.07,0.65,14.02,4042
16:31:42.937,40936,-0.60,-0.93,0.84,13.96,4043
16:31:42.938,40946,-0.49,-0.88,1.16,15.38,4044
16:31:42.943,40956,-0.26,-0.92,1.72,19.73,4045
16:31:42.969,40966,-0.27,-0.78,1.46,16.76,4046
16:31:42.970,40976,-0.50,-0.34,0.79,10.00,4047
16:31:42.971,40986,-0.52,-0.13,0.62,8.16,4048
16:31:43.011,40996,-0.52,-0.40,0.72,9.71,4049
16:31:43.011,41006,-0.47,-0.64,0.75,10.90,4050
16:31:43.013,41016,-0.33,-0.82,0.66,11.06,4051
16:31:43.014,41026,-0.20,-0.80,0.64,10.45,4052
16:31:43.053,41036,0.03,-0.66,0.58,8.79,4053
16:31:43.053,41046,0.13,-0.59,0.64,8.78,4054
16:31:43.055,41056,0.05,-0.46,0.66,8.04,4055
16:31:43.056,41066,-0.15,-0.35,0.66,7.62,4056
16:31:43.086,41076,-0.31,-0.30,0.63,7.62,4057
16:31:43.086,41086,-0.34,-0.28,0.68,8.09,4058
16:31:43.087,41096,-0.37,-0.27,0.69,8.30,4059
16:31:43.127,41106,-0.28,-0.30,0.74,8.49,4060
16:31:43.127,41116,-0.14,-0.33,0.74,8.25,4061
16:31:43.129,41126,-0.08,-0.34,0.66,7.49,4062
16:31:43.131,41136,-0.17,-0.35,0.60,7.14,4063
16:31:43.132,41146,-0.33,-0.36,0.66,8.19,4064
16:31:43.152,41156,-0.43,-0.34,0.71,8.96,4065
16:31:43.153,41166,-0.45,-0.34,0.64,8.53,4066
16:31:43.163,41176,-0.45,-0.36,0.45,7.29,4067
16:31:43.178,41186,-0.44,-0.38,0.42,7.18,4068
16:31:43.182,41196,-0.41,-0.42,0.43,7.25,4069
16:31:43.192,41206,-0.44,-0.54,0.40,8.07,4070
16:31:43.204,41216,-0.53,-0.75,0.45,10.22,4071
16:31:43.212,41226,-0.62,-0.87,0.44,11.53,4072
16:31:43.230,41236,-0.63,-0.86,0.36,11.25,4073
16:31:43.232,41246,-0.67,-0.69,0.12,9.64,4074
16:31:43.241,41256,-0.76,-0.59,0.08,9.67,4075
16:31:43.255,41266,-0.89,-0.55,0.25,10.78,4076
16:31:43.262,41276,-0.99,-0.52,0.23,11.36,4077
16:31:43.272,41286,-0.95,-0.31,0.03,9.98,4078
16:31:43.282,41296,-0.86,-0.04,-0.25,8.99,4079
16:31:43.295,41306,-0.81,0.14,-0.55,9.89,4080
16:31:43.305,41316,-0.76,0.12,-0.85,11.47,4081
16:31:43.313,41326,-0.76,0.07,-1.06,13.07,4082
16:31:43.323,41336,-0.71,-0.07,-1.08,12.92,4083
16:31:43.333,41346,-0.63,-0.21,-0.82,10.55,4084
16:31:43.344,41356,-0.55,-0.37,-0.51,8.36,4085
16:31:43.353,41366,-0.48,-0.48,-0.25,7.22,4086
16:31:43.381,41376,-0.42,-0.53,-0.03,6.75,4087
16:31:43.382,41386,-0.40,-0.56,0.11,6.97,4088
16:31:43.383,41396,-0.72,-0.71,0.09,10.10,4089
16:31:43.397,41406,-0.95,-0.81,0.15,12.58,4090
16:31:43.402,41416,-1.36,-0.76,0.06,15.58,4091
16:31:43.412,41426,-1.73,-0.66,-0.04,18.54,4092
16:31:43.425,41436,-2.10,-0.31,-0.15,21.26,4093
16:31:43.434,41446,-1.97,0.09,-0.37,20.10,4094
16:31:43.444,41456,-1.55,0.26,-0.42,16.25,4095
16:31:43.463,41466,-0.99,-0.56,-0.12,11.42,4096
16:31:43.463,41476,-0.80,-0.82,-0.15,11.54,4097
16:31:43.477,41486,-0.62,-0.97,0.03,11.52,4098
16:31:43.495,41496,-0.46,-1.02,0.38,11.80,4099
16:31:43.495,41506,-0.50,-0.85,0.41,10.66,4100
16:31:43.505,41516,-0.52,-0.63,0.29,8.67,4101
16:31:43.513,41526,-0.36,-0.55,0.59,8.86,4102
16:31:43.524,41536,-0.64,-0.60,0.34,9.39,4103
16:31:43.536,41546,-0.84,-0.69,0.17,11.03,4104
16:31:43.546,41556,-1.00,-0.85,0.12,13.21,4105
16:31:43.554,41566,-0.95,-0.93,0.11,13.33,4106
16:31:43.566,41576,-0.67,-0.91,0.11,11.38,4107
16:31:43.575,41586,-0.56,-0.95,0.12,11.06,4108
16:31:43.588,41596,-0.55,-0.90,0.07,10.62,4109
16:31:43.596,41606,-0.61,-0.80,0.06,10.04,4110
16:31:43.605,41616,-0.71,-0.74,0.11,10.27,4111
16:31:43.615,41626,-0.77,-0.75,0.16,10.90,4112
16:31:43.622,41636,-0.79,-0.77,0.19,11.16,4113
16:31:43.636,41646,-0.77,-0.80,0.22,11.30,4114
16:31:43.676,41656,-0.76,-0.78,0.21,11.08,4115
16:31:43.678,41666,-0.78,-0.70,0.17,10.60,4116
16:31:43.681,41676,-0.84,-0.64,0.15,10.62,4117
16:31:43.681,41686,-0.88,-0.59,0.12,10.66,4118
16:31:43.682,41696,-0.86,-0.60,0.07,10.47,4119
16:31:43.710,41706,-0.83,-0.63,0.02,10.45,4120
16:31:43.712,41716,-0.81,-0.66,0.02,10.45,4121
16:31:43.715,41726,-0.77,-0.68,0.03,10.29,4122
16:31:43.744,41736,-0.77,-0.67,0.04,10.20,4123
16:31:43.747,41746,-0.81,-0.64,0.03,10.31,4124
16:31:43.747,41756,-0.85,-0.62,0.02,10.48,4125
16:31:43.786,41766,-0.87,-0.59,0.03,10.52,4126
16:31:43.788,41776,-0.85,-0.61,0.02,10.42,4127
16:31:43.788,41786,-0.79,-0.65,0.00,10.21,4128
16:31:43.789,41796,-0.78,-0.66,0.00,10.22,4129
16:31:43.826,41806,-0.77,-0.69,0.01,10.32,4130
16:31:43.827,41816,-0.78,-0.68,0.02,10.39,4131
16:31:43.829,41826,-0.78,-0.67,0.04,10.30,4132
16:31:43.831,41836,-0.79,-0.64,0.04,10.21,4133
16:31:43.832,41846,-0.82,-0.62,0.06,10.25,4134
16:31:43.867,41856,-0.85,-0.60,0.05,10.37,4135
16:31:43.868,41866,-0.87,-0.60,0.04,10.52,4136
16:31:43.871,41876,-0.87,-0.61,-0.01,10.63,4137
16:31:43.873,41886,-0.85,-0.63,-0.04,10.58,4138
16:31:43.882,41896,-0.84,-0.64,-0.10,10.63,4139
16:31:43.892,41906,-0.83,-0.62,-0.14,10.48,4140
16:31:43.908,41916,-0.83,-0.60,-0.14,10.34,4141
16:31:43.913,41926,-0.83,-0.59,-0.12,10.21,4142
16:31:43.940,41936,-0.82,-0.61,-0.12,10.26,4143
16:31:43.941,41946,-0.78,-0.62,-0.11,10.02,4144
16:31:43.943,41956,-0.82,-0.62,-0.12,10.33,4145
16:31:43.959,41966,-0.90,-0.60,-0.06,10.83,4146
16:31:43.973,41976,-0.90,-0.64,-0.04,11.08,4147
16:31:43.974,41986,-0.83,-0.67,-0.05,10.67,4148
