time,timestamp,ax,ay,az,mag,time2
17:52:27.111,4109,-0.89,0.53,0.05,10.36,363
17:52:27.123,4119,-0.89,0.53,0.04,10.32,364
17:52:27.130,4129,-0.89,0.52,0.04,10.32,365
17:52:27.140,4139,-0.89,0.52,0.04,10.34,366
17:52:27.150,4149,-0.89,0.52,0.03,10.30,367
17:52:27.163,4159,-0.89,0.52,0.03,10.33,368
17:52:27.177,4169,-0.89,0.53,0.03,10.36,369
17:52:27.180,4179,-0.90,0.52,0.03,10.38,370
17:52:27.191,4189,-0.89,0.53,0.03,10.35,371
17:52:27.201,4199,-0.89,0.52,0.03,10.31,372
17:52:27.211,4209,-0.88,0.53,0.04,10.32,373
17:52:27.227,4219,-0.90,0.53,0.04,10.41,374
17:52:27.230,4229,-0.90,0.53,0.04,10.42,375
17:52:27.240,4239,-0.89,0.52,0.04,10.37,376
17:52:27.250,4249,-0.89,0.53,0.04,10.38,377
17:52:27.263,4259,-0.89,0.53,0.04,10.31,378
17:52:27.270,4269,-0.88,0.53,0.04,10.31,379
17:52:27.280,4279,-0.88,0.53,0.05,10.29,380
17:52:27.294,4289,-0.88,0.53,0.05,10.30,381
17:52:27.300,4299,-0.89,0.52,0.05,10.27,382
17:52:27.310,4309,-0.88,0.52,0.05,10.23,383
17:52:27.327,4319,-0.88,0.52,0.05,10.27,384
17:52:27.330,4329,-0.88,0.53,0.04,10.31,385
17:52:27.343,4339,-0.88,0.53,0.05,10.31,386
17:52:27.353,4349,-0.88,0.53,0.05,10.24,387
17:52:27.384,4359,-0.88,0.54,0.04,10.28,388
17:52:27.386,4369,-0.86,0.55,0.04,10.16,389
17:52:27.386,4379,-0.85,0.55,0.04,10.14,390
17:52:27.391,4389,-0.85,0.55,0.05,10.09,391
17:52:27.465,4399,-0.84,0.57,0.07,10.21,392
17:52:27.465,4409,-0.86,0.56,0.06,10.31,393
17:52:27.469,4419,-0.86,0.53,0.06,10.16,394
17:52:27.469,4429,-0.87,0.51,0.06,10.12,395
17:52:27.469,4439,-0.89,0.52,0.06,10.34,396
17:52:27.470,4449,-0.92,0.50,0.07,10.48,397
17:52:27.506,4459,-0.94,0.49,0.05,10.56,398
17:52:27.629,4469,-0.94,0.48,0.04,10.61,399
17:52:27.629,4479,-0.94,0.49,0.03,10.61,400
17:52:27.633,4489,-0.93,0.49,0.01,10.52,401
17:52:27.633,4499,-0.92,0.49,-0.01,10.41,402
17:52:27.633,4509,-0.92,0.50,-0.01,10.47,403
17:52:27.646,4519,-0.92,0.51,-0.00,10.50,404
17:52:27.646,4529,-0.91,0.52,-0.00,10.51,405
17:52:27.646,4539,-0.90,0.52,-0.00,10.44,406
17:52:27.646,4549,-0.89,0.54,0.02,10.39,407
17:52:27.650,4559,-0.89,0.52,0.01,10.32,408
17:52:27.650,4569,-0.91,0.48,0.01,10.31,409
17:52:27.650,4579,-0.92,0.48,0.02,10.33,410
17:52:27.650,4589,-0.91,0.48,0.01,10.32,411
17:52:27.650,4599,-0.90,0.50,0.01,10.32,412
17:52:27.650,4609,-0.88,0.51,-0.01,10.21,413
17:52:27.650,4619,-0.88,0.52,-0.02,10.21,414
17:52:27.650,4629,-0.88,0.52,-0.04,10.23,415
17:52:27.650,4639,-0.88,0.51,-0.08,10.23,416
17:52:27.651,4649,-0.89,0.51,-0.12,10.29,417
17:52:27.661,4659,-0.90,0.50,-0.15,10.45,418
17:52:27.671,4669,-0.92,0.49,-0.18,10.55,419
17:52:27.680,4679,-0.94,0.51,-0.25,10.97,420
17:52:27.691,4689,-0.93,0.50,-0.26,10.91,421
17:52:27.707,4699,-0.93,0.51,-0.30,11.06,422
17:52:27.712,4709,-0.93,0.52,-0.36,11.29,423
17:52:27.721,4719,-0.94,0.51,-0.43,11.51,424
17:52:27.732,4729,-0.95,0.51,-0.49,11.84,425
17:52:27.748,4739,-0.96,0.50,-0.52,12.07,426
17:52:27.750,4749,-0.95,0.50,-0.55,12.08,427
17:52:27.764,4759,-0.95,0.52,-0.48,11.81,428
17:52:27.770,4769,-0.97,0.55,-0.40,11.83,429
17:52:27.780,4779,-1.02,0.54,-0.21,11.74,430
17:52:27.792,4789,-1.09,0.50,-0.04,12.06,431
17:52:27.800,4799,-1.22,0.44,0.09,13.02,432
17:52:27.814,4809,-1.33,0.37,0.26,14.05,433
17:52:27.821,4819,-1.37,0.50,0.24,14.79,434
17:52:27.834,4829,-1.33,0.67,0.31,15.23,435
17:52:27.843,4839,-1.27,0.70,0.31,14.79,436
17:52:27.851,4849,-1.18,0.61,0.30,13.60,437
17:52:27.862,4859,-1.10,0.53,0.33,12.62,438
17:52:27.877,4869,-1.05,0.46,0.38,12.01,439
17:52:27.880,4879,-1.03,0.51,0.38,12.12,440
17:52:27.894,4889,-1.02,0.47,0.37,11.84,441
17:52:27.904,4899,-0.96,0.51,0.33,11.35,442
17:52:27.910,4909,-0.90,0.50,0.34,10.83,443
17:52:27.920,4919,-0.87,0.49,0.32,10.43,444
17:52:27.930,4929,-0.85,0.46,0.28,10.02,445
17:52:27.940,4939,-0.84,0.41,0.25,9.71,446
17:52:27.954,4949,-0.84,0.39,0.25,9.62,447
17:52:27.962,4959,-0.83,0.40,0.24,9.54,448
17:52:27.971,4969,-0.81,0.43,0.23,9.51,449
17:52:27.982,4979,-0.79,0.48,0.24,9.52,450
17:52:27.993,4989,-0.78,0.50,0.23,9.52,451
17:52:28.000,4999,-0.78,0.51,0.22,9.60,452
17:52:28.015,5009,-0.79,0.52,0.22,9.70,453
17:52:28.020,5019,-0.81,0.49,0.21,9.67,454
17:52:28.030,5029,-0.83,0.47,0.20,9.77,455
17:52:28.040,5039,-0.84,0.48,0.19,9.85,456
17:52:28.050,5049,-0.86,0.48,0.21,10.10,457
17:52:28.060,5059,-0.87,0.50,0.17,10.19,458
17:52:28.075,5069,-0.88,0.50,0.13,10.24,459
17:52:28.080,5079,-0.88,0.50,0.13,10.18,460
17:52:28.090,5089,-0.86,0.49,0.13,10.04,461
17:52:28.101,5099,-0.86,0.51,0.09,10.02,462
17:52:28.110,5109,-0.84,0.50,0.07,9.77,463
17:52:28.121,5119,-0.80,0.45,0.07,9.27,464
17:52:28.137,5129,-0.81,0.45,0.06,9.28,465
17:52:28.140,5139,-0.84,0.46,0.04,9.58,466
17:52:28.152,5149,-0.88,0.47,0.01,10.01,467
17:52:28.202,5159,-0.89,0.45,-0.01,9.97,468
17:52:28.202,5169,-0.91,0.41,-0.02,9.98,469
17:52:28.205,5179,-0.93,0.37,-0.03,9.99,470
17:52:28.206,5189,-0.92,0.35,-0.11,9.89,471
17:52:28.207,5199,-0.86,0.44,-0.19,9.82,472
17:52:28.245,5209,-0.77,0.51,-0.28,9.62,473
17:52:28.245,5219,-0.68,0.56,-0.36,9.49,474
17:52:28.249,5229,-0.60,0.60,-0.43,9.53,475
17:52:28.249,5239,-0.59,0.56,-0.51,9.61,476
17:52:28.250,5249,-0.64,0.50,-0.52,9.64,477
17:52:28.285,5259,-0.73,0.37,-0.51,9.67,478
17:52:28.286,5269,-0.82,0.24,-0.47,9.73,479
17:52:28.289,5279,-0.87,0.16,-0.40,9.74,480
17:52:28.290,5289,-0.85,0.16,-0.32,9.22,481
17:52:28.326,5299,-0.80,0.15,-0.24,8.55,482
17:52:28.327,5309,-0.81,0.18,-0.10,8.35,483
17:52:28.328,5319,-0.78,0.21,-0.02,8.05,484
17:52:28.331,5329,-0.73,0.27,0.07,7.84,485
17:52:28.364,5339,-0.79,0.48,0.03,9.24,486
17:52:28.365,5349,-0.89,0.64,-0.06,10.98,487
17:52:28.367,5359,-1.12,0.50,-0.11,12.34,488
17:52:28.371,5369,-1.21,0.45,-0.31,13.26,489
17:52:28.390,5379,-1.37,0.68,-0.44,15.87,490
17:52:28.392,5389,-1.22,0.98,-0.48,16.38,491
17:52:28.403,5399,-0.99,1.13,-0.59,16.18,492
17:52:28.413,5409,-0.72,1.35,-0.65,16.58,493
17:52:28.422,5419,-0.78,1.50,-0.39,17.32,494
17:52:28.430,5429,-1.07,1.13,-0.16,15.62,495
17:52:28.440,5439,-1.09,0.74,-0.06,13.17,496
17:52:28.456,5449,-1.09,0.46,0.01,11.79,497
17:52:28.460,5459,-1.08,0.34,0.09,11.37,498
17:52:28.470,5469,-1.03,0.29,0.06,10.76,499
17:52:28.484,5479,-1.04,0.17,0.00,10.57,500
17:52:28.489,5489,-1.09,-0.02,-0.11,10.93,501
17:52:28.501,5499,-1.09,-0.00,-0.15,10.96,502
17:52:28.515,5509,-1.08,0.17,-0.12,10.97,503
17:52:28.520,5519,-0.92,0.50,-0.09,10.51,504
17:52:28.530,5529,-0.87,0.65,-0.12,10.90,505
17:52:28.547,5539,-0.91,0.62,-0.03,10.97,506
17:52:28.550,5549,-0.99,0.49,0.02,11.08,507
17:52:28.560,5559,-1.01,0.46,-0.08,11.12,508
17:52:28.570,5569,-1.07,0.30,0.09,11.13,509
17:52:28.585,5579,-1.05,0.23,0.05,10.72,510
17:52:28.590,5589,-1.01,0.27,0.02,10.49,511
17:52:28.602,5599,-1.01,0.35,-0.01,10.72,512
17:52:28.610,5609,-0.99,0.41,-0.04,10.72,513
17:52:28.620,5619,-1.01,0.40,-0.03,10.84,514
17:52:28.630,5629,-1.00,0.36,-0.05,10.63,515
17:52:28.664,5639,-1.01,0.35,-0.02,10.66,516
17:52:28.664,5649,-0.98,0.37,-0.01,10.52,517
17:52:28.665,5659,-0.98,0.36,-0.00,10.44,518
17:52:28.670,5669,-0.96,0.38,-0.01,10.36,519
17:52:28.686,5679,-0.96,0.40,-0.03,10.40,520
17:52:28.690,5689,-0.96,0.39,-0.03,10.40,521
17:52:28.706,5699,-0.95,0.40,-0.02,10.34,522
17:52:28.711,5709,-0.94,0.41,-0.03,10.31,523
17:52:28.720,5719,-0.94,0.42,-0.04,10.26,524
17:52:28.738,5729,-0.92,0.39,-0.03,10.01,525
17:52:28.740,5739,-0.94,0.36,-0.03,10.11,526
17:52:28.751,5749,-0.96,0.34,-0.01,10.17,527
17:52:28.793,5759,-0.98,0.34,0.02,10.34,528
17:52:28.793,5769,-0.96,0.40,0.01,10.41,529
17:52:28.794,5779,-0.93,0.25,-0.01,9.59,530
17:52:28.795,5789,-0.93,0.37,0.06,10.00,531
17:52:28.810,5799,-0.95,0.43,0.06,10.44,532
17:52:28.811,5809,-0.92,0.39,0.06,10.07,533
17:52:28.825,5819,-0.94,0.36,0.05,10.11,534
17:52:28.841,5829,-0.97,0.33,0.08,10.27,535
17:52:28.842,5839,-0.96,0.36,0.10,10.30,536
17:52:28.853,5849,-0.89,0.49,0.16,10.34,537
17:52:28.861,5859,-0.88,0.57,0.16,10.59,538
17:52:28.875,5869,-0.88,0.52,0.19,10.38,539
17:52:28.945,5879,-0.93,0.47,0.18,10.60,540
17:52:28.948,5889,-0.97,0.45,0.14,10.75,541
17:52:28.949,5899,-0.97,0.42,0.09,10.64,542
17:52:28.949,5909,-0.97,0.42,0.08,10.61,543
17:52:28.950,5919,-0.98,0.39,0.04,10.54,544
17:52:28.951,5929,-1.00,0.37,0.06,10.64,545
17:52:28.987,5939,-0.98,0.40,0.09,10.60,546
17:52:28.990,5949,-0.94,0.46,0.07,10.50,547
17:52:28.992,5959,-0.94,0.52,0.10,10.80,548
17:52:28.992,5969,-0.97,0.51,0.08,10.98,549
17:52:28.992,5979,-0.99,0.48,0.06,11.00,550
17:52:28.992,5989,-1.02,0.44,0.00,11.08,551
17:52:29.031,5999,-1.04,0.40,-0.03,11.09,552
17:52:29.032,6009,-1.03,0.41,-0.07,11.07,553
17:52:29.034,6019,-0.99,0.40,-0.08,10.68,554
17:52:29.036,6029,-0.96,0.36,-0.06,10.27,555
17:52:29.071,6039,-0.99,0.35,-0.12,10.58,556
17:52:29.075,6049,-1.02,0.39,-0.12,10.96,557
17:52:29.075,6059,-1.04,0.44,-0.12,11.37,558
17:52:29.075,6069,-1.06,0.44,-0.09,11.53,559
17:52:29.105,6079,-1.09,0.46,-0.07,11.85,560
17:52:29.108,6089,-1.07,0.52,-0.08,11.90,561
17:52:29.108,6099,-1.03,0.57,-0.09,11.84,562
17:52:29.111,6109,-1.03,0.65,-0.08,12.23,563
17:52:29.136,6119,-1.02,0.68,-0.10,12.28,564
17:52:29.136,6129,-0.98,0.72,-0.14,12.21,565
17:52:29.140,6139,-0.98,0.75,-0.19,12.48,566
17:52:29.150,6149,-0.99,0.81,-0.23,13.04,567
17:52:29.161,6159,-1.06,0.83,-0.25,13.69,568
17:52:29.172,6169,-1.18,0.89,-0.50,15.61,569
17:52:29.183,6179,-1.21,0.85,-0.63,16.09,570
17:52:29.190,6189,-1.24,0.72,-0.50,15.20,571
17:52:29.200,6199,-1.23,0.50,-0.33,13.68,572
17:52:29.210,6209,-1.18,0.37,-0.16,12.43,573
17:52:29.220,6219,-1.29,0.21,0.26,13.36,574
17:52:29.230,6229,-1.31,0.21,0.78,15.39,575
17:52:29.241,6239,-1.28,0.38,1.17,17.75,576
17:52:29.251,6249,-1.45,0.39,1.06,18.38,577
17:52:29.261,6259,-1.33,0.28,1.02,17.02,578
17:52:29.272,6269,-1.05,0.15,1.05,14.92,579
17:52:29.280,6279,-0.88,0.10,0.97,13.13,580
17:52:29.291,6289,-0.82,0.07,0.98,12.84,581
17:52:29.307,6299,-0.58,0.43,0.95,11.88,582
17:52:29.310,6309,-0.43,0.62,0.70,10.25,583
17:52:29.325,6319,-0.36,0.49,0.67,9.09,584
17:52:29.330,6329,-0.29,0.53,0.61,8.57,585
17:52:29.340,6339,-0.37,0.55,0.58,8.76,586
17:52:29.355,6349,-0.48,0.51,0.58,9.06,587
17:52:29.360,6359,-0.45,0.39,0.57,8.22,588
17:52:29.375,6369,-0.30,0.35,0.62,7.75,589
17:52:29.380,6379,-0.25,0.35,0.65,7.84,590
17:52:29.391,6389,-0.25,0.37,0.66,7.94,591
17:52:29.403,6399,-0.23,0.41,0.65,8.00,592
17:52:29.411,6409,-0.22,0.51,0.57,8.00,593
17:52:29.426,6419,-0.23,0.48,0.62,8.15,594
17:52:29.430,6429,-0.27,0.42,0.62,7.99,595
17:52:29.440,6439,-0.32,0.37,0.65,8.14,596
17:52:29.450,6449,-0.41,0.34,0.72,8.94,597
17:52:29.462,6459,-0.48,0.37,0.85,10.43,598
17:52:29.470,6469,-0.33,0.33,0.68,8.25,599
17:52:29.483,6479,-0.38,0.36,0.74,9.06,600
17:52:29.492,6489,-0.39,0.39,0.70,8.87,601
17:52:29.503,6499,-0.39,0.43,0.62,8.52,602
17:52:29.512,6509,-0.41,0.44,0.62,8.61,603
17:52:29.521,6519,-0.42,0.46,0.61,8.68,604
17:52:29.539,6529,-0.49,0.44,0.63,9.08,605
17:52:29.542,6539,-0.56,0.41,0.67,9.64,606
17:52:29.554,6549,-0.64,0.38,0.71,10.34,607
17:52:29.560,6559,-0.67,0.32,0.74,10.49,608
17:52:29.570,6569,-0.80,0.21,0.71,10.90,609
17:52:29.624,6579,-0.81,0.15,0.66,10.53,610
17:52:29.624,6589,-0.82,0.12,0.60,10.21,611
17:52:29.625,6599,-0.80,0.14,0.51,9.56,612
17:52:29.627,6609,-0.73,0.31,0.49,9.36,613
17:52:29.628,6619,-0.72,0.54,0.50,10.29,614
17:52:29.629,6629,-0.76,0.70,0.39,10.99,615
17:52:29.664,6639,-0.72,0.78,0.27,10.99,616
17:52:29.666,6649,-0.60,0.77,0.22,10.06,617
17:52:29.667,6659,-0.45,0.70,0.03,8.30,618
17:52:29.670,6669,-0.27,0.58,-0.24,6.80,619
17:52:29.705,6679,-0.36,0.66,-0.40,8.50,620
17:52:29.706,6689,-0.35,0.68,-0.78,10.97,621
17:52:29.708,6699,-0.62,0.39,-0.69,10.05,622
17:52:29.711,6709,-0.91,0.07,-0.39,9.94,623
17:52:29.747,6719,-0.96,-0.10,-0.17,9.84,624
17:52:29.747,6729,-0.97,-0.04,0.11,9.75,625
17:52:29.749,6739,-1.15,0.47,0.13,12.49,626
17:52:29.750,6749,-1.33,1.36,0.01,19.03,627
17:52:29.788,6759,-1.46,1.61,-0.19,21.77,628
17:52:29.791,6769,-1.57,0.51,-0.09,16.54,629
17:52:29.791,6779,-1.53,0.22,-0.05,15.49,630
17:52:29.792,6789,-1.28,0.32,0.14,13.29,631
17:52:29.804,6799,-0.94,0.71,0.31,12.19,632
17:52:29.814,6809,-0.81,1.07,0.35,13.90,633
17:52:29.820,6819,-0.96,0.67,0.02,11.75,634
17:52:29.837,6829,-0.82,0.39,0.24,9.37,635
17:52:29.841,6839,-0.97,0.27,0.09,10.07,636
17:52:29.850,6849,-1.07,0.19,0.05,10.86,637
17:52:29.860,6859,-1.05,0.20,0.01,10.71,638
17:52:29.870,6869,-0.94,0.36,-0.00,10.04,639
17:52:29.880,6879,-0.92,0.47,-0.04,10.30,640
17:52:29.899,6889,-0.96,0.43,-0.09,10.56,641
17:52:29.900,6899,-1.01,0.31,-0.08,10.56,642
17:52:29.910,6909,-1.05,0.28,-0.08,10.84,643
17:52:29.943,6919,-1.08,0.30,-0.05,11.18,644
17:52:29.944,6929,-1.04,0.39,-0.05,11.15,645
17:52:29.945,6939,-1.00,0.48,-0.08,11.15,646
17:52:29.950,6949,-0.98,0.49,-0.10,11.03,647
17:52:29.964,6959,-0.98,0.44,-0.13,10.79,648
17:52:29.970,6969,-0.97,0.44,-0.13,10.71,649
17:52:29.981,6979,-0.95,0.45,-0.16,10.63,650
17:52:29.996,6989,-0.95,0.44,-0.14,10.52,651
17:52:30.000,6999,-0.97,0.43,-0.14,10.67,652
17:52:30.011,7009,-0.97,0.39,-0.14,10.60,653
17:52:30.027,7019,-0.95,0.42,-0.12,10.44,654
17:52:30.030,7029,-0.92,0.47,-0.14,10.41,655
17:52:30.043,7039,-0.93,0.45,-0.14,10.41,656
17:52:30.053,7049,-0.92,0.42,-0.14,10.19,657
17:52:30.060,7059,-0.93,0.42,-0.12,10.28,658
17:52:30.072,7069,-0.92,0.46,-0.05,10.27,659
17:52:30.080,7079,-0.90,0.52,0.02,10.34,660
17:52:30.111,7089,-0.89,0.50,0.07,10.29,661
17:52:30.111,7099,-0.91,0.44,0.10,10.13,662
17:52:30.113,7109,-0.93,0.40,0.12,10.18,663
17:52:30.140,7119,-0.92,0.40,0.13,10.14,664
17:52:30.142,7129,-0.87,0.52,0.12,10.21,665
17:52:30.143,7139,-0.86,0.59,0.09,10.46,666
17:52:30.151,7149,-0.89,0.53,0.06,10.38,667
17:52:30.191,7159,-0.93,0.45,0.02,10.35,668
17:52:30.191,7169,-0.94,0.40,0.01,10.25,669
17:52:30.193,7179,-0.95,0.41,0.01,10.36,670
17:52:30.225,7189,-0.93,0.48,0.04,10.44,671
17:52:30.226,7199,-0.93,0.49,0.08,10.54,672
17:52:30.228,7209,-0.94,0.46,0.09,10.50,673
17:52:30.255,7219,-0.94,0.46,0.11,10.48,674
17:52:30.257,7229,-0.93,0.47,0.12,10.48,675
17:52:30.259,7239,-0.93,0.47,0.09,10.45,676
17:52:30.259,7249,-0.95,0.45,0.07,10.56,677
17:52:30.262,7259,-0.98,0.43,0.04,10.72,678
17:52:30.272,7269,-0.99,0.43,0.03,10.79,679
17:52:30.283,7279,-0.99,0.48,0.03,11.02,680
17:52:30.292,7289,-0.99,0.50,0.05,11.07,681
17:52:30.300,7299,-0.99,0.53,0.06,11.26,682
17:52:30.310,7309,-0.99,0.59,0.07,11.53,683
17:52:30.320,7319,-1.00,0.53,0.03,11.34,684
17:52:30.372,7329,-0.99,0.48,0.01,10.99,685
17:52:30.373,7339,-1.00,0.40,-0.04,10.79,686
17:52:30.373,7349,-1.04,0.35,-0.07,11.03,687
17:52:30.375,7359,-1.08,0.36,-0.10,11.43,688
17:52:30.376,7369,-1.10,0.38,-0.11,11.71,689
17:52:30.414,7379,-1.08,0.41,-0.13,11.67,690
17:52:30.415,7389,-1.08,0.43,-0.15,11.70,691
17:52:30.415,7399,-1.08,0.46,-0.18,11.85,692
17:52:30.417,7409,-1.12,0.48,-0.18,12.34,693
17:52:30.454,7419,-1.15,0.54,-0.24,12.93,694
17:52:30.455,7429,-1.14,0.64,-0.22,13.24,695
17:52:30.458,7439,-1.10,0.75,-0.26,13.63,696
17:52:30.458,7449,-1.10,0.82,-0.31,14.04,697
17:52:30.460,7459,-1.12,0.81,-0.38,14.36,698
17:52:30.495,7469,-1.21,0.81,-0.47,15.30,699
17:52:30.497,7479,-1.25,0.79,-0.68,16.23,700
17:52:30.498,7489,-1.28,0.69,-0.68,16.10,701
17:52:30.500,7499,-1.24,0.55,-0.60,14.82,702
17:52:30.537,7509,-1.25,0.31,-0.35,13.30,703
17:52:30.539,7519,-1.06,0.59,-0.11,12.16,704
17:52:30.540,7529,-1.41,0.26,0.64,15.73,705
17:52:30.540,7539,-1.42,0.35,0.92,17.26,706
17:52:30.551,7549,-1.39,0.39,1.00,17.58,707
17:52:30.563,7559,-1.41,0.26,1.05,17.79,708
17:52:30.573,7569,-1.28,0.13,1.01,16.35,709
17:52:30.583,7579,-0.96,-0.02,1.03,14.09,710
17:52:30.590,7589,-0.72,0.07,0.91,11.62,711
17:52:30.600,7599,-0.44,0.98,0.27,11.09,712
17:52:30.615,7609,-0.55,0.55,0.61,9.87,713
17:52:30.619,7619,-0.47,0.50,0.69,9.72,714
17:52:30.631,7629,-0.40,0.52,0.54,8.50,715
17:52:30.644,7639,-0.45,0.61,0.59,9.58,716
17:52:30.650,7649,-0.55,0.60,0.63,10.31,717
17:52:30.663,7659,-0.60,0.48,0.63,9.99,718
17:52:30.673,7669,-0.54,0.36,0.69,9.43,719
17:52:30.683,7679,-0.46,0.24,0.72,8.88,720
17:52:30.692,7689,-0.34,0.19,0.72,8.18,721
17:52:30.702,7699,-0.32,0.20,0.77,8.57,722
17:52:30.711,7709,-0.28,0.25,0.70,7.96,723
17:52:30.722,7719,-0.20,0.31,0.63,7.33,724
17:52:30.732,7729,-0.24,0.29,0.68,7.79,725
17:52:30.740,7739,-0.27,0.27,0.69,7.86,726
17:52:30.751,7749,-0.25,0.22,0.66,7.38,727
17:52:30.764,7759,-0.31,0.27,0.70,8.11,728
17:52:30.774,7769,-0.31,0.26,0.70,8.12,729
17:52:30.785,7779,-0.31,0.25,0.68,7.84,730
17:52:30.790,7789,-0.30,0.28,0.69,7.98,731
17:52:30.801,7799,-0.30,0.30,0.67,7.91,732
17:52:30.810,7809,-0.34,0.36,0.69,8.45,733
17:52:30.820,7819,-0.34,0.40,0.72,8.89,734
17:52:30.831,7829,-0.38,0.52,0.67,9.25,735
17:52:30.844,7839,-0.40,0.19,0.71,8.39,736
17:52:30.852,7849,-0.40,0.56,0.53,8.70,737
17:52:30.864,7859,-0.39,0.39,0.60,8.19,738
17:52:30.874,7869,-0.51,0.45,0.59,8.97,739
17:52:30.881,7879,-0.63,0.40,0.69,10.13,740
17:52:30.892,7889,-0.73,0.39,0.62,10.38,741
17:52:30.900,7899,-0.82,0.34,0.61,10.78,742
17:52:30.910,7909,-0.79,0.32,0.55,10.18,743
17:52:30.921,7919,-0.87,0.35,0.58,11.03,744
17:52:30.930,7929,-0.84,0.39,0.33,9.82,745
17:52:30.941,7939,-0.85,0.40,0.30,9.88,746
17:52:30.950,7949,-0.90,0.46,0.23,10.34,747
17:52:30.960,7959,-1.00,0.47,0.23,11.27,748
17:52:30.970,7969,-1.12,0.37,0.18,11.96,749
17:52:30.980,7979,-1.17,0.08,-0.01,11.75,750
17:52:30.992,7989,-0.87,0.07,-0.32,9.33,751
17:52:31.001,7999,-0.64,0.22,-0.75,10.12,752
17:52:31.011,8009,-0.28,0.61,-1.44,15.94,753
17:52:31.020,8019,-0.10,0.90,-1.28,15.71,754
17:52:31.031,8029,-0.82,0.33,-0.52,10.23,755
17:52:31.044,8039,-1.07,-0.13,-0.13,10.89,756
17:52:31.053,8049,-0.95,-0.31,0.19,10.17,757
17:52:31.062,8059,-1.04,-0.34,0.52,12.15,758
17:52:31.103,8069,-1.17,0.35,0.25,12.49,759
17:52:31.103,8079,-1.18,1.33,0.15,17.88,760
17:52:31.105,8089,-1.18,2.00,-0.06,23.21,761
17:52:31.106,8099,-1.11,1.56,-0.50,19.81,762
17:52:31.144,8109,-1.20,0.92,-0.08,15.08,763
17:52:31.145,8119,-1.23,0.82,0.08,14.76,764
17:52:31.146,8129,-1.15,0.42,0.29,12.58,765
17:52:31.147,8139,-1.09,0.23,0.45,12.04,766
17:52:31.149,8149,-0.96,0.36,0.53,11.59,767
17:52:31.186,8159,-0.90,0.48,0.40,10.99,768
17:52:31.186,8169,-0.98,0.42,0.26,11.00,769
17:52:31.187,8179,-1.04,0.32,0.19,11.07,770
17:52:31.191,8189,-1.07,0.10,0.09,10.75,771
17:52:31.224,8199,-0.95,0.18,0.02,9.63,772
17:52:31.225,8209,-0.90,0.39,-0.10,9.81,773
17:52:31.226,8219,-0.94,0.48,-0.06,10.61,774
17:52:31.230,8229,-0.98,0.52,-0.09,11.09,775
17:52:31.266,8239,-1.01,0.47,-0.11,11.15,776
17:52:31.269,8249,-1.02,0.35,-0.10,10.80,777
17:52:31.269,8259,-1.08,0.28,-0.08,11.15,778
17:52:31.271,8269,-1.09,0.26,-0.09,11.21,779
17:52:31.307,8279,-1.05,0.27,-0.10,10.85,780
17:52:31.308,8289,-1.01,0.32,-0.09,10.62,781
17:52:31.309,8299,-0.98,0.37,-0.14,10.60,782
17:52:31.310,8309,-0.96,0.41,-0.16,10.60,783
17:52:31.325,8319,-0.98,0.44,-0.17,10.88,784
17:52:31.330,8329,-1.00,0.40,-0.14,10.90,785
17:52:31.345,8339,-0.99,0.37,-0.13,10.67,786
17:52:31.350,8349,-0.98,0.34,-0.10,10.42,787
17:52:31.361,8359,-0.96,0.36,-0.07,10.31,788
17:52:31.370,8369,-0.95,0.39,-0.06,10.32,789
17:52:31.381,8379,-0.92,0.44,-0.05,10.21,790
17:52:31.396,8389,-0.90,0.47,-0.04,10.21,791
17:52:31.405,8399,-0.92,0.46,-0.02,10.32,792
17:52:31.415,8409,-0.95,0.40,-0.00,10.32,793
17:52:31.420,8419,-0.95,0.37,0.04,10.23,794
17:52:31.431,8429,-0.93,0.32,0.04,9.85,795
17:52:31.500,8439,-0.96,0.39,0.05,10.34,796
17:52:31.502,8449,-0.93,0.40,0.04,10.17,797
17:52:31.505,8459,-0.94,0.42,0.04,10.31,798
17:52:31.505,8469,-0.92,0.42,0.05,10.13,799
17:52:31.505,8479,-0.91,0.41,0.04,9.96,800
17:52:31.506,8489,-0.93,0.38,0.07,10.08,801
17:52:31.512,8499,-0.96,0.38,0.09,10.37,802
17:52:31.512,8509,-0.95,0.41,0.13,10.41,803
17:52:31.523,8519,-0.94,0.41,0.15,10.35,804
17:52:31.530,8529,-0.95,0.43,0.15,10.52,805
17:52:31.560,8539,-0.98,0.42,0.18,10.85,806
17:52:31.576,8549,-0.97,0.39,0.17,10.63,807
17:52:31.576,8559,-0.98,0.40,0.13,10.68,808
17:52:31.576,8569,-1.01,0.42,0.09,10.97,809
17:52:31.589,8579,-1.02,0.46,0.00,11.22,810
17:52:31.591,8589,-1.02,0.49,-0.05,11.31,811
17:52:31.605,8599,-1.05,0.43,-0.09,11.43,812
17:52:31.610,8609,-1.09,0.40,-0.08,11.64,813
17:52:31.620,8619,-1.09,0.41,-0.11,11.70,814
17:52:31.636,8629,-1.06,0.44,-0.11,11.52,815
17:52:31.640,8639,-1.03,0.45,-0.13,11.33,816
17:52:31.650,8649,-1.01,0.47,-0.17,11.26,817
17:52:31.660,8659,-1.00,0.44,-0.20,11.15,818
17:52:31.676,8669,-1.00,0.43,-0.19,11.06,819
17:52:31.680,8679,-1.02,0.43,-0.19,11.18,820
17:52:31.692,8689,-1.11,0.43,-0.20,12.04,821
17:52:31.703,8699,-1.20,0.49,-0.22,13.12,822
17:52:31.711,8709,-1.22,0.61,-0.26,13.85,823
17:52:31.723,8719,-1.22,0.74,-0.36,14.70,824
17:52:31.733,8729,-1.20,0.82,-0.39,15.09,825
17:52:31.743,8739,-1.25,0.88,-0.53,16.18,826
17:52:31.798,8749,-1.29,0.90,-0.92,18.23,827
17:52:31.799,8759,-1.35,0.84,-0.82,17.89,828
17:52:31.800,8769,-1.38,0.66,-0.68,16.71,829
17:52:31.801,8779,-1.32,0.43,-0.36,14.34,830
17:52:31.803,8789,-1.47,0.18,0.05,14.81,831
17:52:31.835,8799,-1.60,0.15,0.68,17.46,832
17:52:31.836,8809,-1.33,0.34,1.21,18.31,833
17:52:31.838,8819,-1.44,0.31,1.35,20.04,834
17:52:31.840,8829,-1.56,0.25,1.15,19.50,835
17:52:31.841,8839,-1.23,0.17,1.30,18.00,836
17:52:31.876,8849,-1.03,0.03,1.08,14.95,837
17:52:31.877,8859,-0.68,0.15,1.02,12.31,838
17:52:31.878,8869,-0.32,0.32,1.03,11.24,839
17:52:31.880,8879,-0.29,0.61,0.67,9.52,840
17:52:31.919,8889,-0.19,0.65,0.68,9.58,841
17:52:31.921,8899,-0.04,0.68,0.51,8.46,842
17:52:31.921,8909,-0.15,0.57,0.54,7.95,843
17:52:31.923,8919,-0.43,0.49,0.57,8.69,844
17:52:31.959,8929,-0.48,0.42,0.67,9.22,845
17:52:31.960,8939,-0.47,0.33,0.74,9.39,846
17:52:31.961,8949,-0.42,0.23,0.67,8.22,847
17:52:31.963,8959,-0.33,0.13,0.57,6.73,848
17:52:31.988,8969,-0.26,0.10,0.61,6.75,849
17:52:31.989,8979,-0.28,0.18,0.62,7.04,850
17:52:31.991,8989,-0.29,0.11,0.75,8.09,851
17:52:32.000,8999,-0.28,0.21,0.70,7.85,852
17:52:32.018,9009,-0.26,0.29,0.62,7.33,853
17:52:32.020,9019,-0.46,0.19,0.22,5.39,854
17:52:32.031,9029,-0.30,0.30,0.70,8.22,855
17:52:32.049,9039,-0.25,0.29,0.65,7.55,856
17:52:32.051,9049,-0.25,0.17,0.62,6.92,857
17:52:32.060,9059,-0.32,0.25,0.73,8.37,858
17:52:32.070,9069,-0.34,0.34,0.70,8.49,859
17:52:32.089,9079,-0.37,0.40,0.72,9.02,860
17:52:32.091,9089,-0.38,0.45,0.71,9.21,861
17:52:32.100,9099,-0.40,0.49,0.61,8.77,862
17:52:32.110,9109,-0.42,0.46,0.55,8.35,863
17:52:32.123,9119,-0.43,0.44,0.49,7.86,864
17:52:32.130,9129,-0.42,0.38,0.46,7.31,865
17:52:32.146,9139,-0.59,0.33,0.60,9.07,866
17:52:32.153,9149,-0.50,0.46,0.52,8.59,867
17:52:32.161,9159,-0.76,0.39,0.57,10.25,868
17:52:32.175,9169,-0.82,0.36,0.59,10.69,869
17:52:32.181,9179,-0.85,0.39,0.58,10.99,870
17:52:32.194,9189,-0.89,0.37,0.53,11.03,871
17:52:32.201,9199,-0.85,0.38,0.39,10.09,872
17:52:32.211,9209,-0.83,0.41,0.28,9.69,873
17:52:32.222,9219,-0.92,0.49,0.17,10.57,874
17:52:32.232,9229,-0.99,0.38,0.18,10.78,875
17:52:32.244,9239,-0.96,0.26,0.16,10.02,876
17:52:32.252,9249,-0.93,0.28,0.15,9.88,877
17:52:32.261,9259,-0.98,0.24,-0.04,10.06,878
17:52:32.276,9269,-0.76,0.29,-0.25,8.56,879
17:52:32.280,9279,-0.47,0.39,-0.65,8.89,880
17:52:32.296,9289,-0.29,0.47,-1.07,12.07,881
17:52:32.300,9299,-0.47,0.46,-0.73,9.82,882
17:52:32.310,9309,-0.83,0.16,-0.37,9.25,883
17:52:32.324,9319,-1.01,0.00,-0.02,10.13,884
17:52:32.332,9329,-1.10,0.08,0.10,11.04,885
17:52:32.341,9339,-1.33,0.55,0.02,14.37,886
17:52:32.352,9349,-0.95,1.46,0.05,17.42,887
17:52:32.359,9359,-1.09,1.79,-0.04,20.94,888
17:52:32.370,9369,-1.04,1.34,0.03,16.90,889
17:52:32.380,9379,-1.14,0.87,0.13,14.39,890
17:52:32.390,9389,-1.18,0.47,0.30,13.03,891
17:52:32.401,9399,-1.07,0.44,0.55,12.80,892
17:52:32.411,9409,-0.93,0.44,0.47,11.28,893
17:52:32.422,9419,-0.95,0.26,0.32,10.40,894
17:52:32.430,9429,-1.02,0.06,0.21,10.44,895
17:52:32.446,9439,-1.13,0.07,0.13,11.43,896
17:52:32.450,9449,-1.14,0.15,0.07,11.56,897
17:52:32.465,9459,-1.03,0.22,0.03,10.53,898
17:52:32.470,9469,-0.88,0.42,0.02,9.75,899
17:52:32.504,9479,-0.91,0.46,0.01,10.20,900
17:52:32.507,9489,-0.96,0.48,-0.01,10.77,901
17:52:32.507,9499,-1.01,0.39,-0.03,10.82,902
17:52:32.510,9509,-1.04,0.30,-0.05,10.82,903
17:52:32.520,9519,-1.07,0.27,-0.05,11.00,904
17:52:32.532,9529,-1.05,0.28,-0.08,10.92,905
17:52:32.579,9539,-1.03,0.32,-0.12,10.82,906
17:52:32.579,9549,-0.99,0.35,-0.16,10.64,907
17:52:32.580,9559,-0.95,0.40,-0.20,10.49,908
17:52:32.581,9569,-0.92,0.50,-0.23,10.73,909
17:52:32.582,9579,-0.92,0.55,-0.22,10.92,910
17:52:32.612,9589,-0.92,0.51,-0.21,10.72,911
17:52:32.613,9599,-0.94,0.44,-0.17,10.49,912
17:52:32.616,9609,-0.95,0.40,-0.11,10.40,913
17:52:32.654,9619,-0.94,0.39,-0.03,10.23,914
17:52:32.654,9629,-0.90,0.43,0.02,10.00,915
17:52:32.655,9639,-0.89,0.47,0.04,10.02,916
17:52:32.657,9649,-0.89,0.50,0.09,10.21,917
17:52:32.695,9659,-0.90,0.48,0.12,10.32,918
17:52:32.695,9669,-0.94,0.44,0.15,10.51,919
17:52:32.696,9679,-0.96,0.39,0.15,10.45,920
17:52:32.698,9689,-0.94,0.39,0.16,10.35,921
17:52:32.700,9699,-0.93,0.41,0.17,10.32,922
17:52:32.736,9709,-0.91,0.42,0.15,10.18,923
17:52:32.736,9719,-0.91,0.41,0.15,10.11,924
17:52:32.739,9729,-0.93,0.40,0.13,10.20,925
17:52:32.742,9739,-0.95,0.37,0.10,10.25,926
17:52:32.772,9749,-0.97,0.39,0.09,10.54,927
17:52:32.774,9759,-0.98,0.39,0.07,10.59,928
17:52:32.774,9769,-0.99,0.41,0.05,10.67,929
17:52:32.782,9779,-0.99,0.45,0.02,10.89,930
17:52:32.824,9789,-0.99,0.46,-0.01,10.93,931
17:52:32.824,9799,-0.98,0.44,-0.03,10.78,932
17:52:32.826,9809,-1.01,0.44,-0.06,11.02,933
17:52:32.829,9819,-1.03,0.49,-0.07,11.39,934
17:52:32.858,9829,-1.04,0.49,-0.07,11.54,935
17:52:32.859,9839,-1.04,0.46,-0.09,11.41,936
17:52:32.860,9849,-1.05,0.40,-0.10,11.29,937
17:52:32.862,9859,-1.07,0.38,-0.11,11.39,938
17:52:32.878,9869,-1.06,0.37,-0.14,11.36,939
17:52:32.892,9879,-1.05,0.38,-0.16,11.27,940
17:52:32.893,9889,-1.05,0.39,-0.18,11.33,941
17:52:32.903,9899,-1.04,0.40,-0.20,11.26,942
17:52:32.910,9909,-1.04,0.38,-0.22,11.28,943
17:52:32.920,9919,-1.08,0.46,-0.24,11.97,944
17:52:32.930,9929,-1.11,0.51,-0.21,12.40,945
17:52:32.946,9939,-1.13,0.57,-0.17,12.81,946
17:52:32.955,9949,-1.12,0.70,-0.21,13.37,947
17:52:32.960,9959,-1.12,0.81,-0.27,14.05,948
17:52:32.972,9969,-1.15,0.87,-0.35,14.87,949
17:52:32.980,9979,-1.21,0.89,-0.56,16.00,950
17:52:32.991,9989,-1.23,0.90,-0.82,17.29,951
17:52:33.000,9999,-1.27,0.87,-0.75,17.11,952
17:52:33.012,10009,-1.27,0.80,-0.64,16.33,953
17:52:33.021,10019,-1.23,0.71,-0.40,14.72,954
17:52:33.037,10029,-1.30,0.63,-0.10,14.53,955
17:52:33.040,10039,-1.27,0.58,0.38,14.46,956
17:52:33.058,10049,-1.19,0.51,1.07,16.80,957
17:52:33.060,10059,-1.41,0.51,1.09,18.55,958
17:52:33.070,10069,-1.44,0.27,1.04,17.92,959
17:52:33.081,10079,-1.31,-0.10,1.09,17.04,960
17:52:33.091,10089,-1.20,-0.24,1.11,16.51,961
17:52:33.108,10099,-0.90,-0.07,1.10,14.28,962
17:52:33.113,10109,-0.79,0.29,1.00,13.06,963
17:52:33.124,10119,-0.66,1.09,0.25,12.96,964
17:52:33.132,10129,-0.49,0.57,0.46,8.74,965
17:52:33.143,10139,-0.22,0.83,0.47,9.82,966
17:52:33.151,10149,-0.14,0.92,0.48,10.48,967
17:52:33.162,10159,-0.38,0.64,0.58,9.45,968
17:52:33.170,10169,-0.45,0.49,0.64,9.24,969
17:52:33.229,10179,-0.46,0.47,0.68,9.50,970
17:52:33.229,10189,-0.39,0.38,0.65,8.51,971
17:52:33.229,10199,-0.30,0.37,0.65,8.03,972
17:52:33.230,10209,-0.31,0.37,0.67,8.24,973
17:52:33.232,10219,-0.31,0.33,0.68,8.23,974
17:52:33.233,10229,-0.70,0.25,0.23,7.84,975
17:52:33.269,10239,-0.45,0.32,0.71,9.00,976
17:52:33.270,10249,-0.28,0.27,0.67,7.78,977
17:52:33.271,10259,-0.32,0.31,0.73,8.53,978
17:52:33.272,10269,-0.31,0.32,0.73,8.56,979
17:52:33.310,10279,-0.33,0.37,0.74,8.89,980
17:52:33.314,10289,-0.30,0.43,0.66,8.47,981
17:52:33.316,10299,-0.27,0.46,0.61,8.11,982
17:52:33.316,10309,-0.29,0.31,0.73,8.42,983
17:52:33.345,10319,-0.32,0.47,0.61,8.33,984
17:52:33.345,10329,-0.38,0.52,0.65,9.16,985
17:52:33.346,10339,-0.49,0.48,0.60,9.09,986
17:52:33.351,10349,-0.56,0.40,0.63,9.31,987
17:52:33.378,10359,-0.62,0.36,0.64,9.57,988
17:52:33.378,10369,-0.71,0.31,0.65,10.07,989
17:52:33.380,10379,-0.79,0.32,0.68,10.91,990
17:52:33.416,10389,-0.82,0.31,0.61,10.71,991
17:52:33.416,10399,-0.86,0.29,0.39,9.93,992
17:52:33.417,10409,-0.81,0.34,0.41,9.66,993
17:52:33.421,10419,-0.80,0.46,0.38,9.93,994
17:52:33.438,10429,-0.83,0.53,0.32,10.37,995
17:52:33.439,10439,-0.84,0.57,0.24,10.44,996
17:52:33.455,10449,-0.85,0.57,0.15,10.30,997
17:52:33.461,10459,-0.88,0.44,0.07,9.90,998
17:52:33.473,10469,-0.82,0.33,-0.17,9.00,999
17:52:33.481,10479,-0.54,0.51,-0.49,8.88,1000
17:52:33.500,10489,-0.62,0.38,-1.03,12.59,1001
17:52:33.501,10499,-0.14,0.59,-1.09,12.53,1002
17:52:33.510,10509,-0.73,0.30,-0.59,9.85,1003
17:52:33.520,10519,-0.99,-0.03,-0.19,10.05,1004
17:52:33.530,10529,-1.02,-0.23,0.12,10.57,1005
17:52:33.547,10539,-0.97,-0.27,0.32,10.53,1006
17:52:33.550,10549,-0.93,-0.05,0.47,10.44,1007
17:52:33.564,10559,-1.08,0.66,0.35,13.10,1008
17:52:33.572,10569,-1.16,1.61,0.21,19.96,1009
17:52:33.582,10579,-1.15,2.00,-0.08,23.02,1010
17:52:33.591,10589,-1.19,1.35,-0.34,18.35,1011
17:52:33.601,10599,-1.13,0.93,-0.01,14.68,1012
17:52:33.618,10609,-1.17,0.72,0.09,13.74,1013
17:52:33.620,10619,-1.26,0.25,0.25,13.05,1014
17:52:33.638,10629,-1.32,0.06,0.45,13.99,1015
17:52:33.640,10639,-1.20,0.01,0.52,13.04,1016
17:52:33.650,10649,-0.98,0.26,0.29,10.53,1017
17:52:33.666,10659,-0.95,0.37,0.16,10.36,1018
17:52:33.670,10669,-0.98,0.43,0.03,10.72,1019
17:52:33.686,10679,-1.00,0.33,-0.08,10.61,1020
17:52:33.690,10689,-0.92,0.40,-0.16,10.16,1021
17:52:33.705,10699,-0.84,0.53,-0.24,10.19,1022
17:52:33.717,10709,-0.84,0.55,-0.19,10.22,1023
17:52:33.720,10719,-0.89,0.57,-0.14,10.68,1024
17:52:33.731,10729,-0.95,0.49,-0.16,10.78,1025
17:52:33.745,10739,-1.01,0.37,-0.18,10.89,1026
17:52:33.750,10749,-1.05,0.32,-0.15,11.10,1027
17:52:33.784,10759,-1.03,0.34,-0.13,10.97,1028
17:52:33.784,10769,-0.99,0.42,-0.15,10.81,1029
17:52:33.786,10779,-0.96,0.41,-0.14,10.54,1030
17:52:33.790,10789,-0.92,0.45,-0.18,10.39,1031
17:52:33.808,10799,-0.93,0.44,-0.17,10.42,1032
17:52:33.810,10809,-0.96,0.44,-0.11,10.59,1033
17:52:33.822,10819,-0.95,0.42,-0.07,10.40,1034
17:52:33.832,10829,-0.93,0.43,-0.06,10.27,1035
17:52:33.848,10839,-0.92,0.47,-0.04,10.38,1036
17:52:33.850,10849,-0.94,0.45,-0.03,10.45,1037
17:52:33.865,10859,-0.95,0.42,-0.01,10.44,1038
17:52:33.870,10869,-0.94,0.40,0.01,10.24,1039
17:52:33.881,10879,-0.94,0.38,0.05,10.14,1040
17:52:33.890,10889,-0.94,0.37,0.10,10.18,1041
17:52:33.900,10899,-0.92,0.39,0.13,10.06,1042
17:52:33.953,10909,-0.92,0.41,0.15,10.16,1043
17:52:33.953,10919,-0.90,0.44,0.17,10.22,1044
17:52:33.954,10929,-0.89,0.47,0.17,10.18,1045
17:52:33.955,10939,-0.89,0.44,0.20,10.10,1046
17:52:33.956,10949,-0.88,0.42,0.20,10.01,1047
17:52:33.992,10959,-0.89,0.42,0.19,10.01,1048
17:52:33.993,10969,-0.91,0.42,0.16,10.17,1049
17:52:33.994,10979,-0.94,0.41,0.15,10.40,1050
17:52:33.995,10989,-0.96,0.42,0.10,10.52,1051
17:52:34.034,10999,-1.01,0.37,0.09,10.76,1052
17:52:34.034,11009,-1.01,0.33,0.07,10.68,1053
17:52:34.035,11019,-0.99,0.38,0.03,10.63,1054
17:52:34.037,11029,-0.96,0.44,-0.00,10.52,1055
17:52:34.040,11039,-0.96,0.48,-0.04,10.71,1056
17:52:34.068,11049,-0.98,0.46,-0.05,10.85,1057
17:52:34.068,11059,-1.01,0.48,-0.07,11.16,1058
17:52:34.070,11069,-1.05,0.49,-0.07,11.64,1059
17:52:34.140,11079,-1.06,0.52,-0.08,11.88,1060
17:52:34.141,11089,-1.05,0.50,-0.10,11.63,1061
17:52:34.142,11099,-1.07,0.41,-0.12,11.56,1062
17:52:34.143,11109,-1.08,0.39,-0.12,11.53,1063
17:52:34.144,11119,-1.08,0.43,-0.12,11.71,1064
17:52:34.145,11129,-1.08,0.44,-0.10,11.74,1065
17:52:34.149,11139,-1.07,0.43,-0.12,11.60,1066
17:52:34.150,11149,-1.07,0.47,-0.08,11.71,1067
17:52:34.167,11159,-1.11,0.51,-0.09,12.27,1068
17:52:34.170,11169,-1.17,0.54,-0.12,12.97,1069
17:52:34.186,11179,-1.20,0.60,-0.19,13.57,1070
17:52:34.200,11189,-1.19,0.74,-0.31,14.35,1071
17:52:34.200,11199,-1.20,0.84,-0.39,15.21,1072
17:52:34.210,11209,-1.25,0.94,-0.61,16.77,1073
17:52:34.225,11219,-1.30,0.97,-0.90,18.56,1074
17:52:34.230,11229,-1.39,0.93,-0.91,19.03,1075
17:52:34.240,11239,-1.39,0.79,-0.86,18.15,1076
17:52:34.250,11249,-1.35,0.55,-0.68,16.04,1077
17:52:34.261,11259,-1.44,0.30,-0.28,14.95,1078
17:52:34.272,11269,-1.46,0.29,0.26,15.08,1079
17:52:34.281,11279,-1.43,0.44,0.77,16.84,1080
17:52:34.290,11289,-1.67,0.29,1.04,19.89,1081
17:52:34.308,11299,-1.68,0.23,1.12,20.35,1082
17:52:34.312,11309,-1.46,-0.01,1.08,18.18,1083
17:52:34.323,11319,-1.32,-0.20,1.21,18.06,1084
17:52:34.332,11329,-1.02,-0.11,1.05,14.67,1085
17:52:34.345,11339,-0.60,0.08,1.05,12.16,1086
17:52:34.352,11349,-0.45,0.61,0.86,11.46,1087
17:52:34.363,11359,-0.26,0.63,0.66,9.44,1088
17:52:34.373,11369,-0.22,0.73,0.38,8.56,1089
17:52:34.382,11379,-0.09,0.85,0.51,9.93,1090
17:52:34.390,11389,-0.37,0.64,0.59,9.48,1091
17:52:34.400,11399,-0.53,0.39,0.54,8.52,1092
17:52:34.413,11409,-0.57,0.33,0.72,9.71,1093
17:52:34.423,11419,-0.55,0.13,0.77,9.59,1094
17:52:34.433,11429,-0.40,0.03,0.75,8.48,1095
17:52:34.442,11439,-0.26,0.08,0.68,7.36,1096
17:52:34.451,11449,-0.25,0.07,0.69,7.41,1097
17:52:34.467,11459,-0.18,0.15,0.69,7.31,1098
17:52:34.470,11469,-0.27,0.18,0.71,7.77,1099
17:52:34.482,11479,-0.27,0.18,0.67,7.41,1100
17:52:34.492,11489,-0.29,0.17,0.64,7.27,1101
17:52:34.502,11499,-0.15,0.26,0.45,5.40,1102
17:52:34.512,11509,-0.28,0.13,0.67,7.34,1103
17:52:34.522,11519,-0.29,0.22,0.72,8.06,1104
17:52:34.530,11529,-0.31,0.28,0.70,8.19,1105
17:52:34.542,11539,-0.34,0.31,0.66,8.05,1106
17:52:34.551,11549,-0.34,0.37,0.69,8.51,1107
17:52:34.560,11559,-0.35,0.40,0.68,8.62,1108
17:52:34.570,11569,-0.37,0.42,0.72,9.09,1109
17:52:34.581,11579,-0.40,0.37,0.66,8.57,1110
17:52:34.593,11589,-0.40,0.57,0.46,8.35,1111
17:52:34.610,11599,-0.43,0.48,0.53,8.30,1112
17:52:34.612,11609,-0.51,0.50,0.58,9.17,1113
17:52:34.620,11619,-0.68,0.50,0.59,10.31,1114
17:52:34.634,11629,-0.76,0.45,0.63,10.82,1115
17:52:34.641,11639,-0.82,0.44,0.59,11.01,1116
17:52:34.658,11649,-0.86,0.40,0.47,10.53,1117
17:52:34.660,11659,-0.82,0.35,0.38,9.68,1118
17:52:34.674,11669,-0.74,0.43,0.32,9.18,1119
17:52:34.682,11679,-0.73,0.57,0.24,9.54,1120
17:52:34.691,11689,-0.87,0.57,0.19,10.57,1121
17:52:34.703,11699,-0.91,0.61,0.12,11.00,1122
17:52:34.714,11709,-1.10,0.23,0.08,11.23,1123
17:52:34.754,11719,-1.16,-0.07,-0.12,11.68,1124
17:52:34.754,11729,-0.78,-0.10,-0.47,9.21,1125
17:52:34.757,11739,-0.61,0.15,-1.04,12.11,1126
17:52:34.757,11749,-0.40,0.33,-0.98,11.08,1127
17:52:34.759,11759,-0.67,0.34,-0.48,8.87,1128
17:52:34.794,11769,-0.88,0.23,-0.03,9.12,1129
17:52:34.794,11779,-1.01,0.15,0.20,10.42,1130
17:52:34.795,11789,-1.13,0.37,0.26,12.12,1131
17:52:34.801,11799,-1.41,1.28,0.06,19.07,1132
17:52:34.836,11809,-1.24,2.00,0.10,23.50,1133
17:52:34.836,11819,-1.27,1.40,0.21,18.98,1134
17:52:34.837,11829,-1.19,0.95,0.15,15.35,1135
17:52:34.840,11839,-1.22,0.44,0.31,13.37,1136
17:52:34.870,11849,-1.16,0.30,0.52,13.02,1137
17:52:34.870,11859,-1.00,0.49,0.55,12.43,1138
17:52:34.871,11869,-0.87,0.56,0.44,11.29,1139
17:52:34.902,11879,-0.91,0.51,0.33,10.93,1140
17:52:34.902,11889,-0.93,0.48,0.22,10.67,1141
17:52:34.903,11899,-1.05,0.38,0.12,11.19,1142
17:52:34.943,11909,-1.08,0.22,0.00,10.99,1143
17:52:34.943,11919,-0.99,0.17,-0.02,10.01,1144
17:52:34.944,11929,-0.95,0.25,0.07,9.81,1145
17:52:34.945,11939,-1.00,0.38,-0.04,10.68,1146
17:52:34.960,11949,-1.03,0.44,-0.10,11.26,1147
17:52:34.963,11959,-1.03,0.38,-0.12,11.02,1148
17:52:34.971,11969,-1.01,0.34,-0.12,10.70,1149
17:52:34.984,11979,-1.05,0.31,-0.17,11.03,1150
17:52:34.992,11989,-1.07,0.28,-0.22,11.25,1151
17:52:35.001,11999,-1.03,0.32,-0.28,11.12,1152
17:52:35.011,12009,-0.96,0.39,-0.33,10.91,1153
17:52:35.022,12019,-0.93,0.46,-0.37,11.03,1154
17:52:35.030,12029,-0.94,0.49,-0.36,11.20,1155
17:52:35.064,12039,-0.98,0.41,-0.28,11.00,1156
17:52:35.064,12049,-1.00,0.34,-0.20,10.73,1157
17:52:35.066,12059,-0.99,0.30,-0.11,10.38,1158
17:52:35.070,12069,-0.95,0.34,-0.01,10.08,1159
17:52:35.081,12079,-0.91,0.42,0.03,10.06,1160
17:52:35.098,12089,-0.89,0.45,0.06,10.02,1161
17:52:35.103,12099,-0.91,0.46,0.08,10.23,1162
17:52:35.110,12109,-0.92,0.46,0.10,10.34,1163
17:52:35.129,12119,-0.91,0.46,0.10,10.26,1164
17:52:35.130,12129,-0.92,0.42,0.11,10.17,1165
17:52:35.143,12139,-0.92,0.41,0.14,10.16,1166
17:52:35.152,12149,-0.94,0.39,0.16,10.25,1167
17:52:35.161,12159,-0.93,0.40,0.17,10.27,1168
17:52:35.171,12169,-0.89,0.43,0.15,9.98,1169
17:52:35.183,12179,-0.90,0.43,0.14,10.04,1170
17:52:35.192,12189,-0.91,0.41,0.15,10.05,1171
17:52:35.208,12199,-0.93,0.41,0.17,10.26,1172
17:52:35.210,12209,-0.95,0.42,0.14,10.49,1173
17:52:35.220,12219,-0.97,0.43,0.17,10.77,1174
17:52:35.231,12229,-0.98,0.42,0.11,10.75,1175
17:52:35.242,12239,-1.00,0.41,0.08,10.86,1176
17:52:35.255,12249,-1.02,0.42,0.04,11.01,1177
17:52:35.260,12259,-1.02,0.47,-0.01,11.21,1178
17:52:35.271,12269,-1.04,0.49,-0.06,11.49,1179
17:52:35.280,12279,-1.07,0.45,-0.11,11.62,1180
17:52:35.296,12289,-1.07,0.44,-0.12,11.66,1181
17:52:35.301,12299,-1.08,0.41,-0.14,11.60,1182
17:52:35.311,12309,-1.09,0.41,-0.16,11.77,1183
17:52:35.327,12319,-1.07,0.44,-0.19,11.74,1184
17:52:35.330,12329,-1.05,0.47,-0.21,11.70,1185
17:52:35.341,12339,-1.02,0.47,-0.24,11.52,1186
17:52:35.352,12349,-1.01,0.47,-0.29,11.50,1187
17:52:35.361,12359,-1.02,0.48,-0.30,11.69,1188
17:52:35.376,12369,-1.05,0.51,-0.32,12.10,1189
17:52:35.380,12379,-1.14,0.58,-0.33,13.17,1190
17:52:35.394,12389,-1.19,0.70,-0.33,14.16,1191
17:52:35.466,12399,-1.21,0.77,-0.37,14.84,1192
17:52:35.519,12409,-1.26,0.78,-0.42,15.39,1193
17:52:35.523,12419,-1.30,0.83,-0.39,15.87,1194
17:52:35.524,12429,-1.33,0.93,-0.67,17.56,1195
17:52:35.524,12439,-1.35,0.86,-0.82,17.97,1196
17:52:35.524,12449,-1.37,0.74,-0.54,16.43,1197
17:52:35.560,12459,-1.30,0.54,-0.32,14.43,1198
17:52:35.563,12469,-1.29,0.38,0.03,13.41,1199
17:52:35.563,12479,-1.27,0.40,0.48,14.12,1200
17:52:35.563,12489,-1.29,0.41,1.02,16.90,1201
17:52:35.563,12499,-1.47,0.45,1.28,19.99,1202
17:52:35.563,12509,-1.54,0.33,1.25,20.17,1203
17:52:35.563,12519,-1.33,0.08,1.15,17.60,1204
17:52:35.563,12529,-1.04,0.03,0.96,14.16,1205
17:52:35.564,12539,-0.74,0.18,0.89,11.74,1206
17:52:35.565,12549,-0.55,0.19,1.19,13.25,1207
17:52:35.566,12559,-0.22,0.55,0.76,9.67,1208
17:52:35.604,12569,-0.45,0.64,0.57,9.70,1209
17:52:35.604,12579,-0.12,0.76,0.48,9.03,1210
17:52:35.605,12589,-0.44,0.64,0.40,8.67,1211
17:52:35.605,12599,-0.40,0.55,0.56,8.79,1212
17:52:35.627,12609,-0.46,0.47,0.57,8.71,1213
17:52:35.629,12619,-0.46,0.37,0.62,8.58,1214
17:52:35.630,12629,-0.44,0.31,0.62,8.21,1215
17:52:35.640,12639,-0.40,0.31,0.59,7.79,1216
17:52:35.651,12649,-0.37,0.33,0.67,8.32,1217
17:52:35.665,12659,-0.37,0.30,0.66,8.16,1218
17:52:35.670,12669,-0.35,0.29,0.68,8.23,1219
17:52:35.685,12679,-0.35,0.26,0.67,7.99,1220
17:52:35.690,12689,-0.39,0.27,0.77,9.00,1221
17:52:35.707,12699,-0.40,0.22,0.71,8.48,1222
17:52:35.713,12709,-0.46,0.26,0.74,9.06,1223
17:52:35.723,12719,-0.46,0.29,0.76,9.31,1224
17:52:35.732,12729,-0.39,0.35,0.71,8.85,1225
17:52:35.744,12739,-0.40,0.38,0.65,8.54,1226
17:52:35.752,12749,-0.43,0.42,0.62,8.63,1227
17:52:35.760,12759,-0.45,0.44,0.63,8.88,1228
17:52:35.778,12769,-0.51,0.41,0.63,9.04,1229
17:52:35.780,12779,-0.53,0.41,0.62,9.12,1230
17:52:35.798,12789,-0.60,0.45,0.65,9.97,1231
17:52:35.800,12799,-0.66,0.43,0.68,10.42,1232
17:52:35.810,12809,-0.71,0.37,0.68,10.48,1233
17:52:35.820,12819,-0.78,0.31,0.61,10.36,1234
17:52:35.831,12829,-0.80,0.31,0.51,9.99,1235
17:52:35.846,12839,-0.78,0.36,0.47,9.77,1236
17:52:35.850,12849,-0.82,0.51,0.38,10.43,1237
17:52:35.860,12859,-0.83,0.62,0.29,10.78,1238
17:52:35.870,12869,-0.83,0.57,0.31,10.51,1239
17:52:35.888,12879,-0.79,0.44,0.23,9.29,1240
17:52:35.890,12889,-0.86,0.29,0.17,9.26,1241
17:52:35.901,12899,-0.92,0.04,-0.10,9.28,1242
17:52:35.910,12909,-0.85,0.05,-0.33,9.13,1243
17:52:35.923,12919,-0.59,-0.07,-0.83,10.17,1244
17:52:35.930,12929,-0.33,0.52,-1.37,15.06,1245
17:52:35.945,12939,-0.47,0.60,-0.74,10.60,1246
17:52:35.949,12949,-0.77,0.28,-0.20,8.48,1247
17:52:35.960,12959,-0.92,-0.04,0.12,9.24,1248
17:52:35.974,12969,-1.03,-0.17,0.38,11.14,1249
17:52:35.983,12979,-1.06,0.27,0.43,11.77,1250
17:52:35.994,12989,-1.58,1.12,0.34,19.67,1251
17:52:36.004,12999,-1.39,1.68,0.07,21.79,1252
17:52:36.010,13009,-1.14,1.67,-0.04,20.20,1253
17:52:36.024,13019,-0.88,1.37,0.05,16.29,1254
17:52:36.034,13029,-0.92,0.94,0.09,13.23,1255
17:52:36.044,13039,-1.02,0.47,0.33,11.65,1256
17:52:36.052,13049,-1.14,0.26,0.44,12.46,1257
17:52:36.062,13059,-1.05,0.34,0.53,12.22,1258
17:52:36.073,13069,-0.98,0.35,0.34,10.95,1259
17:52:36.082,13079,-1.05,0.24,0.24,11.00,1260
17:52:36.091,13089,-1.09,0.26,0.13,11.28,1261
17:52:36.134,13099,-1.09,0.18,0.01,11.04,1262
17:52:36.134,13109,-1.03,0.19,-0.05,10.51,1263
17:52:36.137,13119,-0.91,0.39,-0.13,10.00,1264
17:52:36.139,13129,-0.89,0.43,-0.08,9.97,1265
17:52:36.140,13139,-0.97,0.45,-0.05,10.70,1266
17:52:36.175,13149,-1.04,0.39,-0.08,11.17,1267
17:52:36.176,13159,-1.11,0.26,-0.07,11.38,1268
17:52:36.177,13169,-1.09,0.23,-0.08,11.16,1269
17:52:36.180,13179,-1.05,0.27,-0.10,10.91,1270
17:52:36.217,13189,-1.00,0.35,-0.16,10.71,1271
17:52:36.218,13199,-0.96,0.44,-0.20,10.73,1272
17:52:36.219,13209,-0.93,0.44,-0.19,10.46,1273
17:52:36.220,13219,-0.93,0.50,-0.19,10.72,1274
17:52:36.258,13229,-0.92,0.54,-0.16,10.81,1275
17:52:36.258,13239,-0.92,0.50,-0.13,10.56,1276
17:52:36.260,13249,-0.95,0.43,-0.10,10.49,1277
17:52:36.265,13259,-0.97,0.40,-0.06,10.49,1278
17:52:36.300,13269,-0.98,0.36,-0.04,10.42,1279
17:52:36.300,13279,-0.99,0.35,-0.03,10.49,1280
17:52:36.301,13289,-0.97,0.39,-0.02,10.45,1281
17:52:36.302,13299,-0.93,0.46,-0.01,10.41,1282
17:52:36.334,13309,-0.92,0.50,-0.01,10.47,1283
17:52:36.334,13319,-0.91,0.48,0.01,10.31,1284
17:52:36.339,13329,-0.91,0.44,0.03,10.13,1285
17:52:36.356,13339,-0.92,0.41,0.05,10.09,1286
17:52:36.358,13349,-0.93,0.42,0.07,10.24,1287
17:52:36.360,13359,-0.93,0.41,0.10,10.21,1288
17:52:36.375,13369,-0.94,0.40,0.13,10.27,1289
17:52:36.380,13379,-0.94,0.39,0.12,10.19,1290
17:52:36.395,13389,-0.94,0.40,0.12,10.28,1291
17:52:36.404,13399,-0.94,0.40,0.13,10.31,1292
17:52:36.412,13409,-0.96,0.39,0.11,10.45,1293
17:52:36.424,13419,-0.98,0.40,0.11,10.63,1294
17:52:36.430,13429,-1.00,0.40,0.09,10.81,1295
17:52:36.441,13439,-1.02,0.39,0.03,10.92,1296
17:52:36.452,13449,-1.01,0.38,-0.01,10.83,1297
17:52:36.464,13459,-1.00,0.43,-0.07,10.89,1298
17:52:36.474,13469,-1.02,0.48,-0.09,11.30,1299
17:52:36.481,13479,-1.04,0.49,-0.11,11.59,1300
17:52:36.499,13489,-1.06,0.47,-0.15,11.72,1301
17:52:36.500,13499,-1.08,0.43,-0.18,11.75,1302
17:52:36.512,13509,-1.05,0.45,-0.22,11.69,1303
17:52:36.521,13519,-1.03,0.46,-0.26,11.59,1304
17:52:36.533,13529,-1.05,0.39,-0.28,11.54,1305
17:52:36.543,13539,-1.07,0.36,-0.31,11.70,1306
17:52:36.550,13549,-1.09,0.37,-0.30,11.85,1307
17:52:36.560,13559,-1.16,0.42,-0.28,12.65,1308
17:52:36.578,13569,-1.23,0.50,-0.26,13.51,1309
17:52:36.580,13579,-1.24,0.64,-0.25,14.16,1310
17:52:36.590,13589,-1.21,0.77,-0.29,14.66,1311
17:52:36.604,13599,-1.22,0.81,-0.32,14.95,1312
17:52:36.610,13609,-1.25,0.88,-0.36,15.74,1313
17:52:36.621,13619,-1.32,0.99,-0.82,18.36,1314
17:52:36.632,13629,-1.39,0.99,-0.97,19.61,1315
17:52:36.640,13639,-1.45,0.81,-0.79,18.36,1316
17:52:36.653,13649,-1.43,0.61,-0.58,16.56,1317
17:52:36.662,13659,-1.42,0.40,-0.21,14.85,1318
17:52:36.671,13669,-1.38,0.37,0.32,14.66,1319
17:52:36.680,13679,-1.28,0.48,0.73,15.46,1320
17:52:36.690,13689,-1.30,0.40,1.12,17.66,1321
17:52:36.711,13699,-1.47,0.37,1.15,18.99,1322
17:52:36.712,13709,-1.35,0.09,1.22,18.22,1323
17:52:36.721,13719,-1.25,-0.15,1.32,18.26,1324
17:52:36.738,13729,-1.03,-0.17,1.14,15.47,1325
17:52:36.741,13739,-0.67,0.11,1.17,13.48,1326
17:52:36.759,13749,-0.47,0.44,0.96,11.61,1327
17:52:36.759,13759,-0.50,0.51,0.70,10.06,1328
17:52:36.796,13769,-0.17,0.79,0.43,9.14,1329
17:52:36.805,13779,0.07,0.94,0.43,10.33,1330
17:52:36.806,13789,-0.25,0.65,0.58,9.04,1331
17:52:36.807,13799,-0.52,0.37,0.65,9.16,1332
17:52:36.811,13809,-0.55,0.24,0.75,9.62,1333
17:52:36.820,13819,-0.48,0.14,0.73,8.83,1334
17:52:36.830,13829,-0.34,0.13,0.66,7.55,1335
17:52:36.871,13839,-0.26,0.24,0.70,7.78,1336
17:52:36.872,13849,-0.22,0.26,0.71,7.90,1337
17:52:36.875,13859,-0.23,0.30,0.63,7.35,1338
17:52:36.875,13869,-0.29,0.25,0.75,8.44,1339
17:52:36.912,13879,-0.25,0.24,0.59,6.86,1340
17:52:36.912,13889,-0.30,0.20,0.67,7.63,1341
17:52:36.913,13899,-0.34,0.20,0.76,8.57,1342
17:52:36.915,13909,-0.37,0.19,0.72,8.30,1343
17:52:36.953,13919,-0.39,0.22,0.73,8.58,1344
17:52:36.955,13929,-0.38,0.24,0.69,8.25,1345
17:52:36.955,13939,-0.39,0.29,0.68,8.35,1346
17:52:36.956,13949,-0.38,0.34,0.62,8.02,1347
17:52:36.995,13959,-0.41,0.38,0.65,8.56,1348
17:52:36.995,13969,-0.45,0.44,0.59,8.58,1349
17:52:36.996,13979,-0.50,0.46,0.62,9.21,1350
17:52:36.997,13989,-0.55,0.44,0.67,9.78,1351
17:52:37.036,13999,-0.62,0.41,0.69,10.16,1352
17:52:37.036,14009,-0.70,0.40,0.67,10.52,1353
17:52:37.038,14019,-0.63,0.41,0.45,8.82,1354
17:52:37.042,14029,-0.79,0.34,0.49,9.87,1355
17:52:37.042,14039,-0.78,0.36,0.43,9.59,1356
17:52:37.064,14049,-0.79,0.41,0.43,9.90,1357
17:52:37.064,14059,-0.82,0.44,0.30,9.79,1358
17:52:37.071,14069,-0.84,0.43,0.26,9.83,1359
17:52:37.082,14079,-0.93,0.41,0.18,10.33,1360
17:52:37.091,14089,-1.01,0.25,0.12,10.46,1361
17:52:37.108,14099,-0.99,0.12,-0.01,9.93,1362
17:52:37.110,14109,-0.84,0.15,-0.30,9.07,1363
17:52:37.122,14119,-0.64,0.26,-1.02,12.37,1364
17:52:37.131,14129,-0.58,0.35,-1.11,12.98,1365
17:52:37.141,14139,-0.60,0.54,-1.01,12.88,1366
17:52:37.150,14149,-0.73,0.41,-0.36,9.10,1367
17:52:37.160,14159,-0.93,0.13,-0.13,9.47,1368
17:52:37.170,14169,-0.96,-0.14,0.12,9.78,1369
17:52:37.183,14179,-0.89,-0.17,0.28,9.51,1370
17:52:37.190,14189,-1.04,0.11,0.28,10.83,1371
17:52:37.208,14199,-1.31,1.01,0.14,16.62,1372
17:52:37.210,14209,-1.30,1.80,-0.02,22.22,1373
17:52:37.220,14219,-1.14,2.00,-0.31,23.19,1374
17:52:37.231,14229,-0.83,1.34,-0.36,16.22,1375
17:52:37.240,14239,-0.98,1.30,-0.15,16.39,1376
17:52:37.256,14249,-1.16,0.79,0.05,14.06,1377
17:52:37.263,14259,-1.37,-0.05,0.35,14.15,1378
17:52:37.273,14269,-1.44,-0.18,0.56,15.60,1379
17:52:37.281,14279,-1.29,-0.19,0.63,14.50,1380
17:52:37.290,14289,-0.97,0.40,0.36,11.09,1381
17:52:37.304,14299,-0.92,0.54,0.14,10.79,1382
17:52:37.314,14309,-0.94,0.46,0.04,10.46,1383
17:52:37.322,14319,-0.92,0.32,-0.07,9.73,1384
17:52:37.331,14329,-0.90,0.36,-0.07,9.69,1385
17:52:37.340,14339,-0.89,0.39,-0.01,9.75,1386
17:52:37.350,14349,-0.96,0.40,-0.06,10.44,1387
17:52:37.367,14359,-1.00,0.41,-0.06,10.81,1388
17:52:37.370,14369,-1.00,0.38,-0.08,10.75,1389
17:52:37.381,14379,-1.02,0.33,-0.08,10.76,1390
17:52:37.391,14389,-1.04,0.33,-0.07,10.92,1391
17:52:37.407,14399,-1.02,0.37,-0.10,10.89,1392
17:52:37.410,14409,-0.98,0.44,-0.19,10.97,1393
17:52:37.420,14419,-0.97,0.37,-0.21,10.62,1394
17:52:37.434,14429,-0.99,0.36,-0.21,10.71,1395
17:52:37.444,14439,-0.99,0.38,-0.20,10.83,1396
17:52:37.450,14449,-0.99,0.45,-0.21,11.08,1397
17:52:37.461,14459,-0.97,0.44,-0.19,10.82,1398
17:52:37.473,14469,-0.97,0.41,-0.15,10.67,1399
17:52:37.482,14479,-0.97,0.40,-0.09,10.56,1400
17:52:37.490,14489,-0.98,0.37,-0.06,10.52,1401
17:52:37.508,14499,-0.97,0.38,-0.03,10.43,1402
17:52:37.510,14509,-0.96,0.41,-0.04,10.42,1403
17:52:37.520,14519,-0.95,0.44,-0.04,10.50,1404
17:52:37.530,14529,-0.93,0.44,-0.05,10.33,1405
17:52:37.549,14539,-0.94,0.40,-0.04,10.20,1406
17:52:37.551,14549,-0.93,0.38,-0.01,10.06,1407
17:52:37.564,14559,-0.93,0.36,0.01,9.96,1408
17:52:37.570,14569,-0.94,0.36,0.05,10.11,1409
17:52:37.582,14579,-0.96,0.38,0.09,10.33,1410
17:52:37.625,14589,-0.93,0.41,0.12,10.25,1411
17:52:37.625,14599,-0.91,0.40,0.15,10.10,1412
17:52:37.626,14609,-0.90,0.41,0.16,10.05,1413
17:52:37.627,14619,-0.91,0.42,0.16,10.20,1414
17:52:37.632,14629,-0.93,0.42,0.17,10.33,1415
17:52:37.667,14639,-0.95,0.42,0.17,10.51,1416
17:52:37.667,14649,-0.96,0.43,0.16,10.62,1417
17:52:37.667,14659,-0.97,0.43,0.13,10.71,1418
17:52:37.707,14669,-0.97,0.43,0.08,10.69,1419
17:52:37.707,14679,-0.97,0.43,0.01,10.62,1420
17:52:37.708,14689,-1.00,0.44,-0.04,10.90,1421
17:52:37.748,14699,-1.04,0.49,-0.09,11.56,1422
17:52:37.748,14709,-1.07,0.48,-0.09,11.73,1423
17:52:37.750,14719,-1.07,0.44,-0.11,11.61,1424
17:52:37.751,14729,-1.08,0.42,-0.13,11.64,1425
17:52:37.752,14739,-1.04,0.46,-0.15,11.45,1426
17:52:37.754,14749,-1.02,0.46,-0.16,11.32,1427
17:52:37.790,14759,-1.00,0.45,-0.19,11.17,1428
17:52:37.790,14769,-1.01,0.43,-0.21,11.17,1429
17:52:37.791,14779,-1.04,0.38,-0.21,11.28,1430
17:52:37.793,14789,-1.07,0.39,-0.21,11.54,1431
17:52:37.831,14799,-1.08,0.46,-0.20,11.90,1432
17:52:37.833,14809,-1.12,0.55,-0.21,12.69,1433
17:52:37.833,14819,-1.20,0.64,-0.22,13.79,1434
17:52:37.833,14829,-1.21,0.80,-0.27,14.77,1435
17:52:37.843,14839,-1.21,0.93,-0.33,15.56,1436
17:52:37.853,14849,-1.28,0.96,-0.64,17.27,1437
17:52:37.861,14859,-1.34,0.93,-0.92,18.69,1438
17:52:37.872,14869,-1.42,0.92,-0.88,19.09,1439
17:52:37.885,14879,-1.42,0.71,-0.83,17.92,1440
17:52:37.890,14889,-1.40,0.43,-0.58,15.79,1441
17:52:37.911,14899,-1.53,0.18,-0.15,15.45,1442
17:52:37.911,14909,-1.54,0.22,0.52,16.38,1443
17:52:37.926,14919,-1.52,0.35,0.86,17.82,1444
17:52:37.931,14929,-1.64,0.29,1.25,20.76,1445
17:52:37.940,14939,-1.60,0.18,1.23,20.30,1446
17:52:37.958,14949,-1.56,-0.06,1.24,19.97,1447
17:52:37.960,14959,-1.24,-0.17,1.41,18.91,1448
17:52:37.973,14969,-0.86,-0.05,1.25,15.21,1449
17:52:37.984,14979,-0.49,0.22,1.30,14.05,1450
17:52:37.993,14989,-0.71,0.34,1.42,16.19,1451
17:52:38.033,14999,-0.28,0.65,0.82,10.82,1452
17:52:38.033,15009,-0.06,0.87,0.51,10.15,1453
17:52:38.033,15019,0.14,0.95,0.53,11.00,1454
17:52:38.034,15029,-0.26,0.61,0.54,8.59,1455
17:52:38.040,15039,-0.47,0.36,0.66,8.87,1456
17:52:38.054,15049,-0.50,0.31,0.70,9.13,1457
17:52:38.091,15059,-0.44,0.22,0.69,8.45,1458
17:52:38.091,15069,-0.36,0.05,0.79,8.67,1459
17:52:38.092,15079,-0.36,-0.04,0.68,7.68,1460
17:52:38.093,15089,-0.28,0.15,0.64,7.17,1461
17:52:38.100,15099,-0.26,0.21,0.64,7.17,1462
17:52:38.112,15109,0.05,-0.04,0.75,7.57,1463
17:52:38.120,15119,-0.24,0.26,0.56,6.64,1464
17:52:38.131,15129,-0.23,0.23,0.66,7.38,1465
17:52:38.149,15139,-0.30,0.25,0.69,7.93,1466
17:52:38.150,15149,-0.29,0.25,0.73,8.22,1467
17:52:38.160,15159,-0.33,0.23,0.73,8.33,1468
17:52:38.170,15169,-0.31,0.28,0.67,7.91,1469
17:52:38.182,15179,-0.33,0.31,0.68,8.19,1470
17:52:38.199,15189,-0.29,0.28,0.71,8.18,1471
17:52:38.199,15199,-0.41,0.57,0.54,8.87,1472
17:52:38.210,15209,-0.43,0.49,0.60,8.90,1473
17:52:38.221,15219,-0.46,0.34,0.74,9.33,1474
17:52:38.235,15229,-0.46,0.38,0.69,9.10,1475
17:52:38.240,15239,-0.55,0.39,0.72,9.82,1476
17:52:38.257,15249,-0.64,0.37,0.77,10.71,1477
17:52:38.262,15259,-0.73,0.27,0.77,10.93,1478
17:52:38.273,15269,-0.78,0.28,0.59,10.16,1479
17:52:38.279,15279,-0.80,0.32,0.48,9.87,1480
17:52:38.290,15289,-0.79,0.37,0.42,9.69,1481
17:52:38.300,15299,-0.77,0.39,0.33,9.21,1482
17:52:38.311,15309,-0.77,0.44,0.23,9.19,1483
17:52:38.320,15319,-0.86,0.53,0.20,10.29,1484
17:52:38.336,15329,-0.95,0.49,0.28,11.02,1485
17:52:38.341,15339,-1.02,0.35,0.14,10.89,1486
17:52:38.351,15349,-0.95,0.18,-0.10,9.77,1487
17:52:38.392,15359,-0.78,0.10,-0.48,9.18,1488
17:52:38.392,15369,-0.48,0.11,-0.89,10.20,1489
17:52:38.393,15379,-0.26,0.01,-0.99,10.21,1490
17:52:38.395,15389,-0.51,0.33,-0.70,9.30,1491
17:52:38.434,15399,-0.79,0.18,-0.26,8.49,1492
17:52:38.434,15409,-0.75,0.04,0.15,7.69,1493
17:52:38.434,15419,-0.72,-0.01,0.44,8.47,1494
17:52:38.436,15429,-0.95,0.45,0.29,10.91,1495
17:52:38.475,15439,-1.22,1.34,0.09,18.15,1496
17:52:38.475,15449,-1.33,2.00,-0.12,24.02,1497
17:52:38.476,15459,-1.29,1.76,-0.37,22.11,1498
17:52:38.477,15469,-1.33,1.10,-0.49,17.90,1499
17:52:38.480,15479,-1.46,1.09,-0.15,18.30,1500
17:52:38.515,15489,-1.45,0.34,0.07,14.86,1501
17:52:38.517,15499,-1.30,-0.03,0.50,13.94,1502
17:52:38.517,15509,-1.15,0.12,0.66,13.31,1503
17:52:38.519,15519,-0.83,0.74,0.45,11.97,1504
17:52:38.558,15529,-0.84,0.78,0.25,11.70,1505
17:52:38.558,15539,-0.89,0.49,0.06,10.18,1506
17:52:38.558,15549,-0.93,0.16,-0.09,9.46,1507
17:52:38.560,15559,-1.00,-0.05,-0.08,10.00,1508
17:52:38.583,15569,-1.08,-0.06,0.01,10.80,1509
17:52:38.583,15579,-1.13,0.09,-0.03,11.35,1510
17:52:38.590,15589,-1.02,0.45,-0.07,11.23,1511
17:52:38.601,15599,-0.90,0.63,-0.12,11.05,1512
17:52:38.610,15609,-0.90,0.53,-0.12,10.47,1513
17:52:38.625,15619,-0.97,0.39,-0.08,10.46,1514
17:52:38.633,15629,-1.04,0.30,-0.03,10.85,1515
17:52:38.645,15639,-1.09,0.22,0.01,11.10,1516
17:52:38.649,15649,-1.07,0.22,0.02,10.91,1517
17:52:38.661,15659,-1.02,0.29,0.03,10.61,1518
17:52:38.672,15669,-0.98,0.41,0.02,10.61,1519
17:52:38.683,15679,-0.94,0.48,-0.01,10.51,1520
17:52:38.693,15689,-0.93,0.48,-0.02,10.47,1521
17:52:38.702,15699,-0.93,0.42,-0.01,10.24,1522
17:52:38.717,15709,-0.95,0.36,0.01,10.18,1523
17:52:38.722,15719,-0.96,0.33,0.04,10.21,1524
17:52:38.734,15729,-0.97,0.34,0.07,10.28,1525
17:52:38.743,15739,-0.95,0.41,0.11,10.43,1526
17:52:38.753,15749,-0.89,0.58,0.11,10.66,1527
17:52:38.764,15759,-0.95,0.54,0.11,11.02,1528
17:52:38.770,15769,-0.90,0.32,-0.00,9.53,1529
17:52:38.783,15779,-0.93,0.39,0.05,10.08,1530
17:52:38.794,15789,-0.92,0.35,0.05,9.84,1531
17:52:38.803,15799,-0.94,0.40,0.03,10.22,1532
17:52:38.811,15809,-0.88,0.43,0.02,9.83,1533
17:52:38.820,15819,-0.90,0.47,0.00,10.17,1534
17:52:38.831,15829,-0.92,0.44,0.00,10.24,1535
17:52:38.841,15839,-0.95,0.45,-0.02,10.52,1536
17:52:38.851,15849,-0.97,0.43,-0.02,10.58,1537
17:52:38.860,15859,-0.92,0.39,-0.03,10.00,1538
17:52:38.871,15869,-0.93,0.42,-0.01,10.18,1539
17:52:38.904,15879,-0.95,0.43,0.03,10.48,1540
17:52:38.904,15889,-0.97,0.44,0.05,10.66,1541
17:52:38.905,15899,-0.98,0.45,0.06,10.83,1542
17:52:38.911,15909,-0.99,0.46,0.05,10.90,1543
17:52:38.924,15919,-0.98,0.46,0.04,10.82,1544
17:52:38.933,15929,-0.98,0.45,0.02,10.85,1545
17:52:38.940,15939,-1.01,0.45,0.01,11.07,1546
17:52:38.950,15949,-1.04,0.47,-0.01,11.45,1547
17:52:38.961,15959,-1.06,0.47,-0.03,11.58,1548
17:52:38.970,15969,-1.06,0.43,-0.07,11.43,1549
17:52:38.980,15979,-1.03,0.42,-0.08,11.12,1550
17:52:38.990,15989,-1.01,0.43,-0.09,11.01,1551
17:52:39.001,15999,-0.98,0.43,-0.12,10.75,1552
17:52:39.015,16009,-0.99,0.40,-0.12,10.74,1553
17:52:39.020,16019,-1.04,0.35,-0.10,11.02,1554
17:52:39.030,16029,-1.07,0.35,-0.07,11.32,1555
17:52:39.045,16039,-1.08,0.41,-0.06,11.59,1556
17:52:39.051,16049,-1.07,0.50,-0.07,11.88,1557
17:52:39.061,16059,-1.11,0.57,-0.12,12.52,1558
17:52:39.114,16069,-1.18,0.64,-0.18,13.57,1559
17:52:39.114,16079,-1.18,0.75,-0.31,14.28,1560
17:52:39.115,16089,-1.17,0.81,-0.43,14.84,1561
17:52:39.116,16099,-1.21,0.81,-0.59,15.73,1562
17:52:39.117,16109,-1.28,0.81,-0.78,17.06,1563
17:52:39.151,16119,-1.31,0.82,-0.84,17.59,1564
17:52:39.151,16129,-1.34,0.76,-0.79,17.32,1565
17:52:39.154,16139,-1.35,0.60,-0.70,16.28,1566
17:52:39.154,16149,-1.43,0.35,-0.33,15.09,1567
17:52:39.191,16159,-1.48,0.34,0.08,15.23,1568
17:52:39.193,16169,-1.42,0.38,0.63,16.04,1569
17:52:39.196,16179,-1.48,0.42,0.96,18.13,1570
17:52:39.196,16189,-1.59,0.35,1.20,20.21,1571
17:52:39.224,16199,-1.56,0.20,1.13,19.38,1572
17:52:39.224,16209,-1.33,-0.04,1.22,18.05,1573
17:52:39.227,16219,-1.03,-0.11,1.15,15.51,1574
17:52:39.230,16229,-0.81,0.14,0.99,12.82,1575
17:52:39.266,16239,-0.52,0.33,0.99,11.72,1576
17:52:39.266,16249,-0.44,0.80,0.55,10.65,1577
17:52:39.267,16259,-0.26,0.76,0.65,10.31,1578
17:52:39.271,16269,0.04,0.99,0.43,10.85,1579
17:52:39.317,16279,-0.28,0.71,0.64,9.95,1580
17:52:39.317,16289,-0.54,0.43,0.58,9.01,1581
17:52:39.331,16299,-0.54,0.30,0.73,9.52,1582
17:52:39.334,16309,-0.50,0.23,0.76,9.45,1583
17:52:39.334,16319,-0.41,0.06,0.79,8.89,1584
17:52:39.336,16329,-0.31,0.08,0.67,7.40,1585
17:52:39.340,16339,-0.31,0.05,0.70,7.66,1586
17:52:39.350,16349,-0.26,0.18,0.65,7.22,1587
17:52:39.368,16359,-0.27,0.24,0.66,7.55,1588
17:52:39.370,16369,-0.27,0.30,0.64,7.58,1589
17:52:39.384,16379,-0.28,0.28,0.65,7.62,1590
17:52:39.390,16389,-0.08,0.50,1.19,12.92,1591
17:52:39.401,16399,-0.33,0.27,0.63,7.63,1592
17:52:39.411,16409,-0.30,0.17,0.77,8.45,1593
17:52:39.420,16419,-0.32,0.22,0.71,8.13,1594
17:52:39.431,16429,-0.31,0.29,0.69,8.09,1595
17:52:39.441,16439,-0.31,0.29,0.68,8.00,1596
17:52:39.451,16449,-0.32,0.45,0.61,8.23,1597
17:52:39.461,16459,-0.34,0.35,0.64,8.09,1598
17:52:39.471,16469,-0.43,0.39,0.67,8.90,1599
17:52:39.481,16479,-0.49,0.38,0.67,9.11,1600
17:52:39.494,16489,-0.55,0.33,0.69,9.43,1601
17:52:39.502,16499,-0.66,0.31,0.78,10.67,1602
17:52:39.512,16509,-0.71,0.27,0.76,10.80,1603
17:52:39.521,16519,-0.76,0.27,0.66,10.41,1604
17:52:39.531,16529,-0.80,0.23,0.60,10.29,1605
17:52:39.540,16539,-0.77,0.26,0.49,9.51,1606
17:52:39.553,16549,-0.71,0.37,0.38,8.86,1607
17:52:39.561,16559,-0.67,0.45,0.33,8.74,1608
17:52:39.570,16569,-0.74,0.68,0.23,10.31,1609
17:52:39.587,16579,-0.82,0.67,0.31,11.00,1610
17:52:39.590,16589,-0.91,0.58,0.22,10.99,1611
17:52:39.606,16599,-1.03,0.19,0.07,10.45,1612
17:52:39.612,16609,-1.03,-0.00,-0.24,10.58,1613
17:52:39.620,16619,-0.73,-0.06,-0.65,9.80,1614
17:52:39.634,16629,-0.47,0.00,-1.09,11.89,1615
17:52:39.644,16639,-0.25,0.31,-1.08,11.51,1616
17:52:39.654,16649,-0.68,0.37,-0.60,9.81,1617
17:52:39.664,16659,-0.89,0.16,-0.18,9.24,1618
17:52:39.670,16669,-0.92,-0.08,0.17,9.37,1619
17:52:39.681,16679,-0.84,-0.12,0.34,9.17,1620
17:52:39.690,16689,-1.09,0.30,0.31,11.76,1621
17:52:39.700,16699,-1.45,1.10,0.49,18.82,1622
17:52:39.712,16709,-1.32,1.85,-0.12,22.77,1623
17:52:39.721,16719,-1.11,1.93,-0.34,22.55,1624
17:52:39.737,16729,-0.84,1.52,-0.40,17.78,1625
17:52:39.739,16739,-0.98,1.42,0.02,17.25,1626
17:52:39.750,16749,-1.08,0.95,0.17,14.51,1627
17:52:39.761,16759,-1.30,0.14,0.39,13.64,1628
17:52:39.774,16769,-1.33,-0.12,0.56,14.50,1629
17:52:39.780,16779,-1.22,-0.16,0.51,13.34,1630
17:52:39.795,16789,-0.97,0.26,0.22,10.27,1631
17:52:39.800,16799,-1.01,0.35,0.15,10.78,1632
17:52:39.814,16809,-0.96,0.30,-0.04,10.08,1633
17:52:39.867,16819,-0.90,0.20,-0.14,9.34,1634
17:52:39.867,16829,-0.89,0.21,-0.13,9.26,1635
17:52:39.869,16839,-0.95,0.24,0.01,9.76,1636
17:52:39.870,16849,-1.03,0.35,-0.04,10.89,1637
17:52:39.871,16859,-1.02,0.48,-0.03,11.24,1638
17:52:39.872,16869,-0.98,0.44,-0.02,10.70,1639
17:52:39.905,16879,-0.97,0.36,0.01,10.33,1640
17:52:39.905,16889,-1.00,0.33,0.05,10.53,1641
17:52:39.906,16899,-1.05,0.31,0.07,10.98,1642
17:52:39.910,16909,-1.06,0.27,0.05,11.00,1643
17:52:39.945,16919,-1.03,0.30,0.04,10.70,1644
17:52:39.946,16929,-0.98,0.38,0.02,10.52,1645
17:52:39.948,16939,-0.96,0.47,-0.02,10.69,1646
17:52:39.949,16949,-0.94,0.50,-0.04,10.66,1647
17:52:39.988,16959,-0.95,0.44,-0.05,10.45,1648
17:52:39.988,16969,-0.98,0.36,-0.04,10.42,1649
17:52:39.989,16979,-1.00,0.30,-0.00,10.48,1650
17:52:39.990,16989,-1.01,0.32,0.02,10.56,1651
17:52:40.028,16999,-0.98,0.36,0.01,10.42,1652
17:52:40.028,17009,-0.96,0.41,-0.01,10.42,1653
17:52:40.030,17019,-0.96,0.53,-0.01,10.97,1654
17:52:40.031,17029,-0.97,0.47,-0.08,10.83,1655
17:52:40.057,17039,-0.92,0.42,-0.08,10.15,1656
17:52:40.057,17049,-0.93,0.35,-0.07,10.00,1657
17:52:40.062,17059,-0.99,0.37,-0.05,10.57,1658
17:52:40.072,17069,-0.98,0.37,-0.04,10.51,1659
17:52:40.080,17079,-0.99,0.38,-0.00,10.57,1660
17:52:40.097,17089,-0.93,0.41,0.03,10.14,1661
17:52:40.100,17099,-0.92,0.41,0.08,10.06,1662
17:52:40.113,17109,-0.92,0.43,0.11,10.24,1663
17:52:40.122,17119,-0.93,0.44,0.14,10.39,1664
17:52:40.131,17129,-0.95,0.43,0.14,10.50,1665
17:52:40.141,17139,-0.96,0.39,0.15,10.48,1666
17:52:40.158,17149,-0.98,0.38,0.13,10.60,1667
17:52:40.182,17159,-0.99,0.39,0.12,10.74,1668
17:52:40.183,17169,-1.00,0.40,0.09,10.80,1669
17:52:40.185,17179,-0.99,0.44,0.05,10.87,1670
17:52:40.190,17189,-1.02,0.48,0.01,11.23,1671
17:52:40.207,17199,-1.02,0.49,-0.04,11.31,1672
17:52:40.212,17209,-1.04,0.46,-0.08,11.44,1673
17:52:40.221,17219,-1.07,0.41,-0.11,11.47,1674
17:52:40.232,17229,-1.08,0.41,-0.14,11.60,1675
17:52:40.251,17239,-1.05,0.43,-0.17,11.44,1676
17:52:40.252,17249,-1.02,0.46,-0.18,11.33,1677
17:52:40.262,17259,-1.00,0.46,-0.18,11.15,1678
17:52:40.271,17269,-1.00,0.42,-0.19,10.96,1679
17:52:40.280,17279,-1.00,0.40,-0.18,10.92,1680
17:52:40.291,17289,-1.03,0.41,-0.16,11.21,1681
17:52:40.309,17299,-1.10,0.44,-0.14,11.96,1682
17:52:40.310,17309,-1.20,0.52,-0.19,13.17,1683
17:52:40.321,17319,-1.21,0.67,-0.23,13.98,1684
17:52:40.331,17329,-1.20,0.72,-0.36,14.44,1685
17:52:40.342,17339,-1.23,0.73,-0.45,15.01,1686
17:52:40.350,17349,-1.31,0.75,-0.65,16.42,1687
17:52:40.360,17359,-1.37,0.79,-0.87,18.05,1688
17:52:40.370,17369,-1.48,0.74,-0.83,18.53,1689
17:52:40.380,17379,-1.50,0.65,-0.72,17.87,1690
17:52:40.400,17389,-1.43,0.45,-0.48,15.76,1691
17:52:40.400,17399,-1.49,0.34,-0.07,15.33,1692
17:52:40.411,17409,-1.40,0.39,0.46,15.21,1693
17:52:40.422,17419,-1.38,0.50,0.98,17.65,1694
17:52:40.431,17429,-1.52,0.39,1.11,19.16,1695
17:52:40.441,17439,-1.44,0.35,1.03,18.01,1696
17:52:40.452,17449,-1.28,0.09,1.14,17.17,1697
17:52:40.460,17459,-1.09,-0.05,1.23,16.39,1698
17:52:40.473,17469,-0.85,-0.02,1.06,13.56,1699
17:52:40.483,17479,-0.71,0.39,0.96,12.59,1700
17:52:40.534,17489,-0.52,0.61,0.68,10.52,1701
17:52:40.534,17499,-0.49,0.43,0.60,8.90,1702
17:52:40.535,17509,-0.17,0.78,0.49,9.37,1703
17:52:40.537,17519,-0.06,0.80,0.54,9.69,1704
17:52:40.539,17529,-0.51,0.52,0.56,9.17,1705
17:52:40.539,17539,-0.54,0.35,0.70,9.58,1706
17:52:40.576,17549,-0.57,0.28,0.74,9.79,1707
17:52:40.576,17559,-0.50,0.17,0.76,9.22,1708
17:52:40.577,17569,-0.39,0.13,0.70,8.12,1709
17:52:40.581,17579,-0.28,0.12,0.67,7.36,1710
17:52:40.616,17589,-0.25,0.21,0.70,7.71,1711
17:52:40.617,17599,-0.24,0.20,0.74,8.02,1712
17:52:40.618,17609,-0.23,0.28,0.66,7.59,1713
17:52:40.716,17619,0.08,0.49,1.14,12.46,1714
17:52:40.716,17629,-0.32,0.21,0.65,7.55,1715
17:52:40.717,17639,-0.33,0.18,0.71,8.05,1716
17:52:40.718,17649,-0.35,0.22,0.71,8.18,1717
17:52:40.719,17659,-0.33,0.20,0.72,8.12,1718
17:52:40.724,17669,-0.32,0.26,0.70,8.16,1719
17:52:40.725,17679,-0.30,0.31,0.67,8.00,1720
17:52:40.725,17689,-0.30,0.23,0.75,8.37,1721
17:52:40.725,17699,-0.35,0.43,0.64,8.45,1722
17:52:40.725,17709,-0.39,0.37,0.72,9.02,1723
17:52:40.725,17719,-0.46,0.37,0.70,9.21,1724
17:52:40.730,17729,-0.51,0.42,0.70,9.63,1725
17:52:40.741,17739,-0.56,0.39,0.76,10.25,1726
17:52:40.751,17749,-0.62,0.32,0.75,10.20,1727
17:52:40.762,17759,-0.67,0.29,0.65,9.79,1728
17:52:40.770,17769,-0.70,0.27,0.62,9.77,1729
17:52:40.784,17779,-0.76,0.26,0.54,9.63,1730
17:52:40.790,17789,-0.76,0.30,0.41,9.19,1731
17:52:40.806,17799,-0.79,0.39,0.31,9.30,1732
17:52:40.810,17809,-0.79,0.51,0.20,9.63,1733
17:52:40.826,17819,-0.92,0.58,0.31,11.37,1734
17:52:40.830,17829,-1.04,0.54,0.24,11.92,1735
17:52:40.841,17839,-1.06,0.21,0.07,10.85,1736
17:52:40.850,17849,-0.97,-0.04,-0.10,9.71,1737
17:52:40.865,17859,-0.60,0.06,-0.52,7.96,1738
17:52:40.871,17869,-0.52,-0.05,-0.95,10.88,1739
17:52:40.881,17879,-0.10,0.61,-1.29,14.30,1740
17:52:40.890,17889,-0.61,0.38,-0.68,9.89,1741
17:52:40.900,17899,-0.89,0.09,-0.26,9.33,1742
17:52:40.917,17909,-0.96,-0.13,0.07,9.67,1743
17:52:40.921,17919,-0.96,-0.20,0.26,10.11,1744
17:52:40.936,17929,-1.12,0.03,0.18,11.36,1745
17:52:40.940,17939,-1.39,1.13,0.19,18.00,1746
17:52:40.950,17949,-1.35,2.00,-0.08,24.09,1747
17:52:40.960,17959,-1.27,1.98,-0.34,23.70,1748
17:52:40.970,17969,-0.94,1.31,-0.26,16.32,1749
17:52:40.981,17979,-1.14,1.02,0.11,15.33,1750
17:52:40.993,17989,-1.19,0.35,0.32,12.85,1751
17:52:41.000,17999,-1.35,0.02,0.64,14.90,1752
17:52:41.010,18009,-1.27,-0.07,0.72,14.57,1753
17:52:41.026,18019,-1.00,0.40,0.51,11.87,1754
17:52:41.037,18029,-0.95,0.59,0.41,11.90,1755
17:52:41.040,18039,-0.89,0.66,0.24,11.37,1756
17:52:41.057,18049,-0.93,0.40,0.09,10.13,1757
17:52:41.060,18059,-0.91,0.24,0.06,9.40,1758
17:52:41.070,18069,-0.91,0.23,0.03,9.37,1759
17:52:41.084,18079,-0.99,0.27,-0.01,10.21,1760
17:52:41.090,18089,-1.05,0.36,-0.04,11.14,1761
17:52:41.102,18099,-1.07,0.43,-0.09,11.56,1762
17:52:41.110,18109,-1.02,0.41,-0.17,11.10,1763
17:52:41.121,18119,-0.97,0.40,-0.21,10.66,1764
17:52:41.131,18129,-1.00,0.39,-0.25,11.05,1765
17:52:41.144,18139,-1.00,0.36,-0.24,10.95,1766
17:52:41.150,18149,-1.02,0.30,-0.28,11.04,1767
17:52:41.165,18159,-1.02,0.30,-0.31,11.07,1768
17:52:41.170,18169,-1.06,0.31,-0.28,11.44,1769
17:52:41.186,18179,-1.05,0.33,-0.25,11.27,1770
17:52:41.192,18189,-1.02,0.33,-0.21,10.89,1771
17:52:41.201,18199,-1.00,0.34,-0.15,10.70,1772
17:52:41.211,18209,-0.99,0.35,-0.10,10.57,1773
17:52:41.221,18219,-0.96,0.39,-0.08,10.42,1774
17:52:41.232,18229,-0.95,0.44,-0.04,10.46,1775
17:52:41.245,18239,-0.94,0.43,-0.02,10.34,1776
17:52:41.250,18249,-0.95,0.41,-0.02,10.31,1777
17:52:41.269,18259,-0.98,0.48,0.00,10.90,1778
17:52:41.269,18269,-1.01,0.27,-0.04,10.44,1779
17:52:41.303,18279,-0.92,0.27,0.01,9.64,1780
17:52:41.303,18289,-0.93,0.36,0.05,9.94,1781
17:52:41.304,18299,-0.94,0.41,0.10,10.31,1782
17:52:41.344,18309,-0.95,0.43,0.14,10.53,1783
17:52:41.344,18319,-0.93,0.41,0.16,10.30,1784
17:52:41.347,18329,-0.91,0.38,0.17,10.04,1785
17:52:41.347,18339,-0.90,0.38,0.17,9.93,1786
17:52:41.351,18349,-0.92,0.39,0.17,10.16,1787
17:52:41.385,18359,-0.94,0.39,0.15,10.30,1788
17:52:41.385,18369,-0.95,0.40,0.13,10.42,1789
17:52:41.386,18379,-0.94,0.40,0.11,10.25,1790
17:52:41.391,18389,-0.95,0.41,0.11,10.39,1791
17:52:41.418,18399,-0.97,0.44,0.11,10.73,1792
17:52:41.418,18409,-0.98,0.45,0.06,10.81,1793
17:52:41.420,18419,-0.98,0.44,0.03,10.72,1794
17:52:41.452,18429,-0.99,0.44,-0.01,10.82,1795
17:52:41.452,18439,-1.00,0.44,-0.05,10.99,1796
17:52:41.453,18449,-1.03,0.43,-0.07,11.16,1797
17:52:41.492,18459,-1.04,0.39,-0.10,11.13,1798
17:52:41.494,18469,-1.03,0.39,-0.11,11.12,1799
17:52:41.495,18479,-1.00,0.42,-0.10,10.91,1800
17:52:41.495,18489,-0.97,0.44,-0.13,10.72,1801
17:52:41.534,18499,-0.97,0.41,-0.13,10.58,1802
17:52:41.535,18509,-1.01,0.34,-0.13,10.72,1803
17:52:41.536,18519,-1.04,0.33,-0.09,10.98,1804
17:52:41.537,18529,-1.06,0.38,-0.08,11.34,1805
17:52:41.549,18539,-1.09,0.43,-0.05,11.76,1806
17:52:41.549,18549,-1.14,0.49,-0.05,12.46,1807
17:52:41.561,18559,-1.18,0.56,-0.06,13.11,1808
17:52:41.578,18569,-1.18,0.63,-0.16,13.48,1809
17:52:41.580,18579,-1.19,0.69,-0.25,13.98,1810
17:52:41.594,18589,-1.22,0.74,-0.37,14.69,1811
17:52:41.600,18599,-1.27,0.81,-0.54,16.00,1812
17:52:41.610,18609,-1.29,0.88,-0.70,17.14,1813
17:52:41.620,18619,-1.36,0.87,-0.70,17.58,1814
17:52:41.637,18629,-1.41,0.75,-0.68,17.30,1815
17:52:41.640,18639,-1.37,0.56,-0.55,15.77,1816
17:52:41.652,18649,-1.40,0.32,-0.26,14.55,1817
17:52:41.666,18659,-1.41,0.24,0.23,14.51,1818
17:52:41.670,18669,-1.38,0.39,0.71,16.03,1819
17:52:41.686,18679,-1.46,0.48,0.94,17.96,1820
17:52:41.691,18689,-1.66,0.45,0.94,19.64,1821
17:52:41.700,18699,-1.64,0.28,0.83,18.61,1822
17:52:41.713,18709,-1.45,0.02,0.89,16.96,1823
17:52:41.720,18719,-1.07,-0.04,1.00,14.63,1824
17:52:41.731,18729,-0.77,0.04,1.03,12.85,1825
17:52:41.740,18739,-0.48,0.28,1.00,11.48,1826
17:52:41.751,18749,-0.54,0.41,1.19,13.66,1827
17:52:41.764,18759,-0.40,0.50,0.91,11.09,1828
17:52:41.776,18769,-0.28,0.76,0.55,9.77,1829
17:52:41.780,18779,-0.16,0.77,0.65,10.18,1830
17:52:41.797,18789,-0.46,0.55,0.68,9.85,1831
17:52:41.802,18799,-0.59,0.37,0.68,9.71,1832
17:52:41.811,18809,-0.52,0.29,0.68,8.99,1833
17:52:41.821,18819,-0.40,0.21,0.80,9.15,1834
17:52:41.831,18829,-0.32,0.04,0.73,8.01,1835
17:52:41.847,18839,-0.18,0.14,0.61,6.48,1836
17:52:41.850,18849,-0.19,0.18,0.65,7.04,1837
17:52:41.860,18859,-0.24,0.20,0.70,7.71,1838
17:52:41.874,18869,-0.27,0.21,0.69,7.74,1839
17:52:41.879,18879,-0.56,0.01,-0.07,5.68,1840
17:52:41.890,18889,-0.43,0.19,0.64,7.90,1841
17:52:41.932,18899,-0.36,0.18,0.71,8.17,1842
17:52:41.933,18909,-0.39,0.22,0.77,8.95,1843
17:52:41.933,18919,-0.38,0.26,0.74,8.69,1844
17:52:41.935,18929,-0.33,0.35,0.71,8.55,1845
17:52:41.941,18939,-0.33,0.41,0.70,8.71,1846
17:52:41.954,18949,-0.36,0.43,0.65,8.54,1847
17:52:42.009,18959,-0.41,0.46,0.67,9.09,1848
17:52:42.009,18969,-0.49,0.43,0.72,9.69,1849
17:52:42.009,18979,-0.53,0.40,0.74,9.89,1850
17:52:42.009,18989,-0.56,0.38,0.65,9.45,1851
17:52:42.011,18999,-0.61,0.34,0.64,9.47,1852
17:52:42.012,19009,-0.66,0.29,0.61,9.46,1853
17:52:42.048,19019,-0.68,0.26,0.58,9.30,1854
17:52:42.049,19029,-0.69,0.31,0.52,9.16,1855
17:52:42.050,19039,-0.72,0.44,0.41,9.39,1856
17:52:42.051,19049,-0.74,0.54,0.26,9.53,1857
17:52:42.090,19059,-0.70,0.53,0.25,9.15,1858
17:52:42.090,19069,-0.90,0.54,0.13,10.61,1859
17:52:42.091,19079,-0.97,0.39,0.09,10.54,1860
17:52:42.093,19089,-1.01,0.18,-0.04,10.31,1861
17:52:42.130,19099,-0.87,0.06,-0.33,9.35,1862
17:52:42.131,19109,-0.62,0.19,-0.70,9.54,1863
17:52:42.132,19119,-0.16,0.45,-1.02,11.28,1864
17:52:42.135,19129,-0.30,0.46,-0.91,10.65,1865
17:52:42.171,19139,-0.65,0.42,-0.43,8.88,1866
17:52:42.172,19149,-0.88,0.22,-0.13,9.18,1867
17:52:42.177,19159,-0.96,-0.04,0.16,9.71,1868
17:52:42.177,19169,-0.86,-0.14,0.34,9.37,1869
17:52:42.195,19179,-0.93,0.13,0.33,9.95,1870
17:52:42.195,19189,-1.14,0.92,0.13,14.74,1871
17:52:42.200,19199,-1.09,1.64,0.01,19.71,1872
17:52:42.216,19209,-1.32,2.00,-0.28,24.06,1873
17:52:42.220,19219,-1.56,0.83,-0.52,18.39,1874
17:52:42.232,19229,-1.58,0.53,-0.07,16.68,1875
17:52:42.245,19239,-1.43,0.49,0.06,15.09,1876
17:52:42.252,19249,-1.25,0.24,0.32,13.09,1877
17:52:42.261,19259,-1.11,0.41,0.39,12.47,1878
17:52:42.270,19269,-0.93,0.76,0.35,12.48,1879
17:52:42.280,19279,-0.79,0.80,0.22,11.46,1880
17:52:42.296,19289,-0.84,0.57,0.09,10.17,1881
17:52:42.300,19299,-0.94,0.22,-0.12,9.77,1882
17:52:42.310,19309,-0.98,-0.05,-0.21,10.07,1883
17:52:42.321,19319,-1.06,-0.04,-0.12,10.69,1884
17:52:42.336,19329,-1.15,-0.03,-0.13,11.62,1885
17:52:42.340,19339,-1.05,0.32,-0.18,11.17,1886
17:52:42.357,19349,-0.93,0.63,-0.24,11.44,1887
17:52:42.361,19359,-0.89,0.61,-0.24,11.07,1888
17:52:42.376,19369,-0.97,0.42,-0.15,10.68,1889
17:52:42.379,19379,-1.05,0.33,-0.07,11.01,1890
17:52:42.393,19389,-1.08,0.28,-0.01,11.16,1891
17:52:42.401,19399,-1.07,0.27,0.02,11.09,1892
17:52:42.415,19409,-1.06,0.31,0.01,11.04,1893
17:52:42.421,19419,-1.03,0.36,0.02,10.96,1894
17:52:42.434,19429,-0.98,0.40,0.02,10.59,1895
17:52:42.440,19439,-0.95,0.42,0.01,10.36,1896
17:52:42.454,19449,-0.95,0.41,0.06,10.40,1897
17:52:42.460,19459,-0.96,0.41,0.07,10.47,1898
17:52:42.475,19469,-0.96,0.39,0.06,10.37,1899
17:52:42.480,19479,-0.94,0.37,0.06,10.09,1900
17:52:42.497,19489,-0.93,0.36,0.04,9.98,1901
17:52:42.500,19499,-0.93,0.38,0.04,10.06,1902
17:52:42.510,19509,-0.93,0.38,0.04,10.08,1903
17:52:42.527,19519,-0.95,0.37,0.07,10.17,1904
17:52:42.531,19529,-0.92,0.40,0.09,10.11,1905
17:52:42.545,19539,-0.94,0.47,0.08,10.54,1906
17:52:42.555,19549,-0.89,0.32,0.12,9.55,1907
17:52:42.561,19559,-0.91,0.30,0.13,9.72,1908
17:52:42.570,19569,-0.91,0.43,0.17,10.23,1909
17:52:42.580,19579,-0.87,0.42,0.20,9.84,1910
17:52:42.591,19589,-0.85,0.49,0.23,10.03,1911
17:52:42.601,19599,-0.87,0.54,0.27,10.57,1912
17:52:42.615,19609,-0.88,0.54,0.28,10.64,1913
17:52:42.620,19619,-0.86,0.53,0.25,10.38,1914
17:52:42.635,19629,-0.86,0.49,0.23,10.15,1915
17:52:42.639,19639,-0.84,0.49,0.19,9.89,1916
17:52:42.655,19649,-0.85,0.48,0.15,9.88,1917
17:52:42.660,19659,-0.90,0.44,0.14,10.10,1918
17:52:42.670,19669,-0.90,0.45,0.11,10.15,1919
17:52:42.682,19679,-0.91,0.45,0.07,10.15,1920
17:52:42.690,19689,-0.93,0.43,0.04,10.30,1921
17:52:42.705,19699,-0.93,0.42,-0.01,10.20,1922
17:52:42.710,19709,-0.95,0.41,-0.03,10.41,1923
17:52:42.745,19719,-0.97,0.43,-0.06,10.64,1924
17:52:42.746,19729,-0.98,0.48,-0.07,10.90,1925
17:52:42.746,19739,-0.98,0.51,-0.09,11.09,1926
17:52:42.750,19749,-1.00,0.49,-0.08,11.18,1927
17:52:42.786,19759,-1.01,0.47,-0.06,11.16,1928
17:52:42.786,19769,-1.02,0.46,-0.03,11.18,1929
17:52:42.787,19779,-1.02,0.44,0.01,11.11,1930
17:52:42.790,19789,-1.03,0.42,0.03,11.09,1931
17:52:42.827,19799,-1.01,0.40,0.04,10.89,1932
17:52:42.831,19809,-0.99,0.39,0.05,10.64,1933
17:52:42.831,19819,-0.98,0.40,0.04,10.59,1934
17:52:42.831,19829,-0.98,0.41,0.03,10.65,1935
17:52:42.868,19839,-1.00,0.41,0.01,10.83,1936
17:52:42.872,19849,-1.03,0.42,0.01,11.16,1937
17:52:42.872,19859,-1.04,0.45,0.00,11.35,1938
17:52:42.872,19869,-1.03,0.48,-0.01,11.38,1939
17:52:42.909,19879,-1.01,0.52,-0.04,11.40,1940
17:52:42.910,19889,-1.08,0.54,-0.08,12.10,1941
17:52:42.911,19899,-1.14,0.61,-0.15,12.96,1942
17:52:42.913,19909,-1.14,0.68,-0.23,13.44,1943
17:52:42.951,19919,-1.13,0.71,-0.36,13.82,1944
17:52:42.951,19929,-1.16,0.66,-0.43,14.04,1945
17:52:42.952,19939,-1.23,0.60,-0.61,15.03,1946
17:52:42.954,19949,-1.28,0.56,-0.71,15.69,1947
17:52:42.985,19959,-1.31,0.57,-0.74,16.07,1948
17:52:42.985,19969,-1.29,0.58,-0.74,15.93,1949
17:52:42.989,19979,-1.24,0.53,-0.56,14.59,1950
17:52:42.990,19989,-1.30,0.36,-0.30,13.83,1951
17:52:43.002,19999,-1.35,0.54,0.05,14.58,1952
17:52:43.012,20009,-1.35,0.59,0.54,15.73,1953
17:52:43.020,20019,-1.39,0.57,0.78,16.92,1954
17:52:43.030,20029,-1.43,0.48,0.98,18.02,1955
17:52:43.040,20039,-1.43,0.41,1.05,18.23,1956
17:52:43.050,20049,-1.27,0.22,0.93,15.91,1957
17:52:43.061,20059,-0.99,0.03,1.00,14.09,1958
17:52:43.070,20069,-0.82,-0.01,1.02,13.10,1959
17:52:43.084,20079,-0.72,0.14,0.95,12.02,1960
17:52:43.090,20089,-0.52,0.27,1.08,12.32,1961
17:52:43.100,20099,-0.35,0.35,0.99,11.06,1962
17:52:43.111,20109,-0.23,0.37,0.90,10.00,1963
17:52:43.122,20119,-0.02,0.62,0.67,9.10,1964
17:52:43.132,20129,-0.19,0.87,0.85,12.37,1965
17:52:43.140,20139,-0.52,0.52,0.86,11.26,1966
17:52:43.150,20149,-0.65,0.25,0.73,10.05,1967
17:52:43.161,20159,-0.38,0.23,0.77,8.91,1968
17:52:43.174,20169,-0.28,0.20,0.75,8.29,1969
17:52:43.182,20179,-0.25,0.19,0.72,7.89,1970
17:52:43.194,20189,-0.30,0.24,0.71,8.07,1971
17:52:43.236,20199,-0.28,0.23,0.73,8.18,1972
17:52:43.237,20209,-0.35,0.18,0.79,8.85,1973
17:52:43.238,20219,-0.27,0.21,0.68,7.63,1974
17:52:43.240,20229,-0.28,0.21,0.68,7.67,1975
17:52:43.255,20239,-0.27,0.19,0.70,7.72,1976
17:52:43.256,20249,-0.28,0.19,0.72,7.89,1977
17:52:43.262,20259,-0.26,0.23,0.75,8.24,1978
17:52:43.270,20269,-0.24,0.29,0.70,7.98,1979
17:52:43.284,20279,-0.23,0.37,0.71,8.31,1980
17:52:43.303,20289,-0.23,0.41,0.68,8.28,1981
17:52:43.305,20299,-0.26,0.45,0.63,8.14,1982
17:52:43.324,20309,-0.34,0.46,0.60,8.34,1983
17:52:43.326,20319,-0.39,0.45,0.59,8.33,1984
17:52:43.340,20329,-0.43,0.47,0.57,8.52,1985
17:52:43.340,20339,-0.44,0.34,0.65,8.61,1986
17:52:43.357,20349,-0.55,0.38,0.62,9.13,1987
17:52:43.361,20359,-0.61,0.38,0.66,9.77,1988
17:52:43.376,20369,-0.73,0.35,0.82,11.50,1989
17:52:43.380,20379,-0.77,0.37,0.57,10.26,1990
17:52:43.390,20389,-0.81,0.39,0.51,10.32,1991
17:52:43.402,20399,-0.76,0.41,0.41,9.60,1992
17:52:43.412,20409,-0.75,0.44,0.23,8.99,1993
17:52:43.422,20419,-0.78,0.50,0.17,9.44,1994
17:52:43.430,20429,-0.88,0.47,0.15,10.05,1995
17:52:43.440,20439,-0.94,0.45,0.15,10.51,1996
17:52:43.454,20449,-1.15,0.18,0.09,11.66,1997
17:52:43.463,20459,-1.06,0.04,-0.26,10.92,1998
17:52:43.472,20469,-0.75,0.00,-0.64,9.91,1999
17:52:43.513,20479,-0.39,0.15,-1.19,12.60,2000
17:52:43.513,20489,-0.20,0.33,-1.27,13.23,2001
17:52:43.513,20499,-0.62,0.42,-0.66,9.99,2002
17:52:43.515,20509,-0.92,0.23,-0.26,9.81,2003
17:52:43.553,20519,-1.00,-0.01,0.10,10.00,2004
17:52:43.557,20529,-0.84,-0.10,0.34,9.12,2005
17:52:43.557,20539,-0.92,0.18,0.33,9.97,2006
17:52:43.557,20549,-0.97,0.84,0.06,12.85,2007
17:52:43.594,20559,-1.26,1.65,0.01,20.75,2008
17:52:43.596,20569,-1.31,1.78,-0.27,22.27,2009
17:52:43.596,20579,-1.35,0.81,-0.47,16.41,2010
17:52:43.597,20589,-1.43,0.78,-0.06,16.27,2011
17:52:43.600,20599,-1.40,0.57,0.13,15.22,2012
17:52:43.636,20609,-1.24,0.31,0.44,13.52,2013
17:52:43.637,20619,-0.97,0.48,0.50,11.93,2014
17:52:43.638,20629,-0.75,0.81,0.44,11.85,2015
17:52:43.640,20639,-0.73,0.80,0.34,11.36,2016
17:52:43.677,20649,-0.81,0.49,0.21,9.74,2017
17:52:43.677,20659,-0.98,0.23,0.09,10.13,2018
17:52:43.680,20669,-1.12,0.00,-0.02,11.21,2019
17:52:43.680,20679,-1.11,0.06,-0.09,11.13,2020
17:52:43.703,20689,-1.02,0.19,-0.13,10.43,2021
17:52:43.712,20699,-0.95,0.39,-0.14,10.40,2022
17:52:43.712,20709,-0.93,0.53,-0.21,10.92,2023
17:52:43.723,20719,-0.99,0.44,-0.21,11.02,2024
17:52:43.730,20729,-1.04,0.29,-0.13,10.86,2025
17:52:43.747,20739,-1.04,0.30,-0.07,10.85,2026
17:52:43.750,20749,-1.06,0.32,-0.05,11.12,2027
17:52:43.764,20759,-1.02,0.31,-0.04,10.66,2028
17:52:43.773,20769,-0.99,0.32,-0.05,10.46,2029
17:52:43.783,20779,-1.00,0.37,-0.05,10.62,2030
17:52:43.792,20789,-0.99,0.41,-0.06,10.76,2031
17:52:43.802,20799,-0.99,0.43,-0.04,10.78,2032
17:52:43.813,20809,-0.97,0.39,-0.01,10.49,2033
17:52:43.823,20819,-0.97,0.34,0.02,10.30,2034
17:52:43.834,20829,-0.99,0.31,0.06,10.42,2035
17:52:43.844,20839,-1.01,0.30,0.09,10.53,2036
17:52:43.850,20849,-0.98,0.33,0.09,10.40,2037
17:52:43.862,20859,-0.96,0.38,0.08,10.34,2038
17:52:43.873,20869,-0.94,0.41,0.07,10.27,2039
17:52:43.881,20879,-0.94,0.46,0.04,10.53,2040
17:52:43.890,20889,-0.93,0.50,0.07,10.58,2041
17:52:43.899,20899,-0.98,0.38,0.04,10.54,2042
17:52:43.917,20909,-0.94,0.43,0.09,10.33,2043
17:52:43.921,20919,-0.91,0.32,0.09,9.73,2044
17:52:43.930,20929,-0.91,0.36,0.12,9.90,2045
17:52:43.945,20939,-0.98,0.39,0.13,10.58,2046
17:52:43.950,20949,-0.97,0.37,0.13,10.51,2047
17:52:43.959,20959,-0.93,0.35,0.15,10.10,2048
17:52:43.974,20969,-0.90,0.39,0.10,9.90,2049
17:52:43.980,20979,-0.88,0.43,0.09,9.90,2050
17:52:43.990,20989,-0.91,0.45,0.08,10.18,2051
17:52:44.025,20999,-0.96,0.43,0.08,10.54,2052
17:52:44.028,21009,-0.98,0.40,0.07,10.64,2053
17:52:44.028,21019,-0.97,0.37,0.05,10.40,2054
17:52:44.029,21029,-0.97,0.38,0.04,10.41,2055
17:52:44.046,21039,-0.97,0.41,0.04,10.50,2056
17:52:44.050,21049,-0.97,0.43,0.02,10.61,2057
17:52:44.060,21059,-1.00,0.45,-0.02,10.97,2058
17:52:44.070,21069,-1.01,0.45,-0.04,11.09,2059
17:52:44.080,21079,-1.01,0.43,-0.06,11.00,2060
17:52:44.094,21089,-1.04,0.39,-0.08,11.18,2061
17:52:44.103,21099,-1.08,0.39,-0.08,11.53,2062
17:52:44.110,21109,-1.06,0.41,-0.12,11.47,2063
17:52:44.122,21119,-1.04,0.41,-0.16,11.27,2064
17:52:44.131,21129,-1.02,0.40,-0.19,11.09,2065
17:52:44.141,21139,-1.01,0.39,-0.21,11.00,2066
17:52:44.195,21149,-1.02,0.35,-0.23,11.04,2067
17:52:44.195,21159,-1.05,0.38,-0.21,11.37,2068
17:52:44.196,21169,-1.08,0.43,-0.18,11.81,2069
17:52:44.198,21179,-1.15,0.47,-0.13,12.52,2070
17:52:44.198,21189,-1.22,0.55,-0.11,13.42,2071
17:52:44.200,21199,-1.19,0.68,-0.11,13.79,2072
17:52:44.236,21209,-1.13,0.76,-0.21,13.78,2073
17:52:44.237,21219,-1.13,0.76,-0.28,13.91,2074
17:52:44.238,21229,-1.17,0.78,-0.38,14.61,2075
17:52:44.241,21239,-1.24,0.82,-0.76,16.67,2076
17:52:44.270,21249,-1.30,0.77,-0.79,17.04,2077
17:52:44.273,21259,-1.35,0.71,-0.64,16.49,2078
17:52:44.273,21269,-1.28,0.65,-0.43,14.96,2079
17:52:44.312,21279,-1.22,0.54,-0.14,13.40,2080
17:52:44.314,21289,-1.21,0.44,0.24,13.08,2081
17:52:44.314,21299,-1.10,0.53,0.74,14.27,2082
17:52:44.318,21309,-1.08,0.50,1.13,16.41,2083
17:52:44.353,21319,-1.43,0.43,1.08,18.39,2084
17:52:44.354,21329,-1.30,0.23,1.01,16.67,2085
17:52:44.355,21339,-1.14,-0.07,1.13,16.10,2086
17:52:44.356,21349,-1.05,-0.27,1.17,15.93,2087
17:52:44.376,21359,-0.79,-0.02,0.92,12.09,2088
17:52:44.379,21369,-0.54,0.12,1.09,12.25,2089
17:52:44.380,21379,-0.55,0.39,1.02,12.23,2090
17:52:44.391,21389,-0.41,0.42,0.60,8.45,2091
17:52:44.400,21399,-0.32,0.45,0.50,7.40,2092
17:52:44.410,21409,-0.35,0.47,0.60,8.40,2093
17:52:44.424,21419,-0.45,0.52,0.58,9.05,2094
17:52:44.430,21429,-0.51,0.39,0.61,8.87,2095
17:52:44.444,21439,-0.58,0.22,0.68,9.18,2096
17:52:44.450,21449,-0.55,0.16,0.77,9.60,2097
17:52:44.465,21459,-0.44,0.11,0.79,9.11,2098
17:52:44.472,21469,-0.31,0.12,0.70,7.79,2099
17:52:44.481,21479,-0.25,0.21,0.69,7.67,2100
17:52:44.490,21489,-0.24,0.32,0.66,7.73,2101
17:52:44.504,21499,-0.24,0.29,0.70,7.94,2102
17:52:44.510,21509,-0.26,0.40,0.77,9.05,2103
17:52:44.521,21519,-0.27,0.27,0.56,6.74,2104
17:52:44.539,21529,-0.29,0.21,0.67,7.55,2105
17:52:44.545,21539,-0.32,0.24,0.65,7.59,2106
17:52:44.551,21549,-0.36,0.19,0.66,7.80,2107
17:52:44.562,21559,-0.36,0.23,0.68,8.03,2108
17:52:44.576,21569,-0.39,0.31,0.68,8.41,2109
17:52:44.591,21579,-0.39,0.35,0.64,8.25,2110
17:52:44.592,21589,-0.38,0.40,0.64,8.45,2111
17:52:44.621,21599,-0.39,0.48,0.66,9.02,2112
17:52:44.622,21609,-0.40,0.50,0.61,8.86,2113
17:52:44.623,21619,-0.42,0.47,0.60,8.71,2114
17:52:44.633,21629,-0.50,0.45,0.56,8.76,2115
17:52:44.643,21639,-0.56,0.40,0.51,8.56,2116
17:52:44.686,21649,-0.65,0.37,0.55,9.28,2117
17:52:44.687,21659,-0.75,0.31,0.55,9.79,2118
17:52:44.688,21669,-0.84,0.27,0.54,10.29,2119
17:52:44.707,21679,-0.90,0.25,0.52,10.66,2120
17:52:44.710,21689,-0.93,0.28,0.43,10.60,2121
17:52:44.711,21699,-0.89,0.37,0.37,10.34,2122
17:52:44.712,21709,-0.83,0.45,0.29,9.89,2123
17:52:44.723,21719,-0.79,0.53,0.20,9.71,2124
17:52:44.730,21729,-0.75,0.58,0.10,9.56,2125
17:52:44.740,21739,-0.72,0.47,0.11,8.67,2126
17:52:44.753,21749,-0.81,0.45,0.12,9.33,2127
17:52:44.760,21759,-0.94,0.26,-0.02,9.75,2128
17:52:44.771,21769,-0.92,0.06,-0.27,9.57,2129
17:52:44.782,21779,-0.80,0.08,-0.62,10.13,2130
17:52:44.794,21789,-0.54,0.09,-0.99,11.28,2131
17:52:44.801,21799,-0.53,0.31,-0.93,11.19,2132
17:52:44.810,21809,-0.77,0.26,-0.59,9.99,2133
17:52:44.825,21819,-0.92,0.02,-0.13,9.30,2134
17:52:44.830,21829,-0.85,-0.02,0.12,8.63,2135
17:52:44.840,21839,-0.84,0.09,0.26,8.83,2136
17:52:44.851,21849,-1.12,0.55,0.10,12.54,2137
17:52:44.862,21859,-1.29,1.37,-0.17,18.88,2138
17:52:44.875,21869,-1.15,1.98,-0.20,23.01,2139
17:52:44.884,21879,-1.07,1.51,-0.31,18.78,2140
17:52:44.891,21889,-1.03,1.04,-0.25,14.82,2141
17:52:44.903,21899,-1.19,1.02,0.02,15.69,2142
17:52:44.912,21909,-1.25,0.39,0.21,13.29,2143
17:52:44.966,21919,-1.29,-0.01,0.46,13.73,2144
17:52:44.966,21929,-1.21,0.15,0.61,13.66,2145
17:52:44.967,21939,-0.94,0.51,0.39,11.38,2146
17:52:44.967,21949,-0.93,0.53,0.25,10.98,2147
17:52:44.969,21959,-0.98,0.40,0.12,10.61,2148
17:52:45.005,21969,-0.97,0.30,-0.01,10.19,2149
17:52:45.006,21979,-0.93,0.26,-0.11,9.74,2150
17:52:45.007,21989,-0.89,0.30,-0.12,9.48,2151
17:52:45.009,21999,-0.95,0.35,-0.16,10.20,2152
17:52:45.010,22009,-1.02,0.38,-0.13,11.01,2153
17:52:45.047,22019,-1.05,0.42,-0.15,11.38,2154
17:52:45.050,22029,-1.05,0.34,-0.14,11.12,2155
17:52:45.052,22039,-1.04,0.32,-0.15,10.93,2156
17:52:45.052,22049,-1.05,0.30,-0.13,10.98,2157
17:52:45.089,22059,-1.04,0.29,-0.15,10.89,2158
17:52:45.089,22069,-1.00,0.35,-0.18,10.76,2159
17:52:45.090,22079,-1.00,0.40,-0.21,10.91,2160
17:52:45.091,22089,-0.99,0.43,-0.20,10.99,2161
17:52:45.129,22099,-0.98,0.42,-0.17,10.77,2162
17:52:45.129,22109,-0.98,0.40,-0.12,10.70,2163
17:52:45.131,22119,-0.99,0.36,-0.06,10.57,2164
17:52:45.134,22129,-0.98,0.34,-0.01,10.40,2165
17:52:45.145,22139,-0.98,0.33,0.04,10.30,2166
17:52:45.151,22149,-0.96,0.35,0.07,10.23,2167
17:52:45.164,22159,-0.95,0.39,0.07,10.31,2168
17:52:45.169,22169,-0.92,0.42,0.07,10.17,2169
17:52:45.182,22179,-0.90,0.45,0.07,10.07,2170
17:52:45.192,22189,-0.92,0.53,0.07,10.64,2171
17:52:45.203,22199,-0.92,0.45,0.05,10.21,2172
17:52:45.211,22209,-0.91,0.46,0.08,10.21,2173
17:52:45.227,22219,-0.91,0.32,0.12,9.74,2174
17:52:45.229,22229,-0.90,0.32,0.14,9.69,2175
17:52:45.248,22239,-0.93,0.41,0.17,10.32,2176
17:52:45.257,22249,-0.99,0.40,0.19,10.86,2177
17:52:45.260,22259,-0.98,0.40,0.16,10.71,2178
17:52:45.270,22269,-0.94,0.38,0.14,10.21,2179
17:52:45.304,22279,-0.92,0.37,0.13,9.98,2180
17:52:45.306,22289,-0.88,0.44,0.11,9.91,2181
17:52:45.306,22299,-0.92,0.42,0.10,10.21,2182
17:52:45.311,22309,-0.97,0.40,0.09,10.51,2183
17:52:45.322,22319,-0.98,0.40,0.06,10.59,2184
17:52:45.330,22329,-0.97,0.40,0.04,10.52,2185
17:52:45.344,22339,-0.97,0.42,0.03,10.55,2186
17:52:45.350,22349,-0.98,0.45,0.01,10.84,2187
17:52:45.368,22359,-1.01,0.47,-0.01,11.10,2188
17:52:45.370,22369,-1.03,0.49,-0.05,11.42,2189
17:52:45.387,22379,-1.01,0.47,-0.08,11.21,2190
17:52:45.390,22389,-1.02,0.45,-0.08,11.22,2191
17:52:45.400,22399,-1.03,0.43,-0.08,11.21,2192
17:52:45.411,22409,-1.05,0.42,-0.06,11.29,2193
17:52:45.420,22419,-1.03,0.41,-0.07,11.08,2194
17:52:45.434,22429,-0.99,0.41,-0.06,10.75,2195
17:52:45.443,22439,-0.97,0.39,-0.08,10.47,2196
17:52:45.452,22449,-0.99,0.35,-0.09,10.52,2197
17:52:45.461,22459,-1.01,0.32,-0.11,10.62,2198
17:52:45.472,22469,-1.03,0.33,-0.09,10.88,2199
17:52:45.483,22479,-1.07,0.36,-0.11,11.30,2200
17:52:45.492,22489,-1.11,0.44,-0.11,12.00,2201
17:52:45.502,22499,-1.13,0.54,-0.12,12.56,2202
17:52:45.515,22509,-1.11,0.65,-0.16,12.98,2203
17:52:45.520,22519,-1.12,0.72,-0.25,13.56,2204
17:52:45.535,22529,-1.14,0.79,-0.32,14.27,2205
17:52:45.540,22539,-1.20,0.85,-0.45,15.38,2206
17:52:45.554,22549,-1.25,0.87,-0.72,16.81,2207
17:52:45.560,22559,-1.30,0.85,-0.71,17.07,2208
17:52:45.571,22569,-1.36,0.73,-0.63,16.68,2209
17:52:45.588,22579,-1.35,0.53,-0.47,15.20,2210
17:52:45.590,22589,-1.30,0.34,-0.15,13.54,2211
17:52:45.600,22599,-1.30,0.29,0.31,13.63,2212
17:52:45.610,22609,-1.25,0.45,0.67,14.85,2213
17:52:45.626,22619,-1.30,0.45,1.06,17.41,2214
17:52:45.630,22629,-1.53,0.45,1.06,19.14,2215
17:52:45.643,22639,-1.57,0.22,1.01,18.80,2216
17:52:45.650,22649,-1.20,0.02,1.07,16.08,2217
17:52:45.661,22659,-0.94,-0.15,1.12,14.71,2218
17:52:45.671,22669,-0.75,0.09,0.93,11.96,2219
17:52:45.711,22679,-0.66,0.16,1.14,13.27,2220
17:52:45.713,22689,-0.42,0.55,0.81,10.63,2221
17:52:45.713,22699,-0.29,0.48,0.55,7.87,2222
17:52:45.715,22709,-0.26,0.58,0.62,8.90,2223
17:52:45.754,22719,-0.19,0.78,0.55,9.77,2224
17:52:45.754,22729,-0.39,0.59,0.75,10.31,2225
17:52:45.755,22739,-0.54,0.36,0.69,9.51,2226
17:52:45.756,22749,-0.50,0.25,0.66,8.67,2227
17:52:45.794,22759,-0.38,0.15,0.68,7.89,2228
17:52:45.796,22769,-0.31,0.09,0.71,7.77,2229
17:52:45.796,22779,-0.34,0.05,0.73,8.02,2230
17:52:45.798,22789,-0.31,0.15,0.67,7.49,2231
17:52:45.835,22799,-0.32,0.18,0.64,7.33,2232
17:52:45.836,22809,-0.57,0.04,0.04,5.71,2233
17:52:45.837,22819,-0.33,0.22,0.60,7.18,2234
17:52:45.838,22829,-0.35,0.17,0.66,7.66,2235
17:52:45.839,22839,-0.38,0.24,0.66,7.98,2236
17:52:45.877,22849,-0.35,0.24,0.65,7.78,2237
17:52:45.905,22859,-0.39,0.20,0.70,8.29,2238
17:52:45.920,22869,-0.36,0.23,0.67,7.96,2239
17:52:45.922,22879,-0.34,0.27,0.67,7.97,2240
17:52:45.923,22889,-0.33,0.34,0.65,8.05,2241
17:52:45.934,22899,-0.36,0.40,0.65,8.46,2242
17:52:45.936,22909,-0.40,0.44,0.65,8.80,2243
17:52:45.937,22919,-0.43,0.45,0.64,8.96,2244
17:52:45.938,22929,-0.46,0.39,0.66,8.92,2245
17:52:45.939,22939,-0.52,0.39,0.65,9.18,2246
17:52:45.952,22949,-0.58,0.34,0.68,9.58,2247
17:52:45.997,22959,-0.63,0.32,0.67,9.75,2248
17:52:46.006,22969,-0.67,0.28,0.66,9.78,2249
17:52:46.007,22979,-0.70,0.24,0.60,9.55,2250
17:52:46.009,22989,-0.75,0.28,0.53,9.64,2251
17:52:46.022,22999,-0.76,0.35,0.45,9.47,2252
17:52:46.023,23009,-0.78,0.41,0.34,9.48,2253
17:52:46.025,23019,-0.71,0.45,0.19,8.63,2254
17:52:46.032,23029,-0.82,0.54,0.26,10.16,2255
17:52:46.043,23039,-0.89,0.41,0.23,10.03,2256
17:52:46.051,23049,-1.00,0.31,0.18,10.65,2257
17:52:46.061,23059,-1.06,0.20,0.05,10.82,2258
17:52:46.071,23069,-0.90,0.16,-0.15,9.28,2259
17:52:46.085,23079,-0.76,0.20,-0.42,8.90,2260
17:52:46.090,23089,-0.51,0.30,-0.98,11.43,2261
17:52:46.100,23099,-0.25,0.45,-1.10,12.16,2262
17:52:46.114,23109,-0.56,0.49,-0.81,10.97,2263
17:52:46.119,23119,-0.85,0.23,-0.36,9.53,2264
17:52:46.138,23129,-0.97,-0.07,-0.03,9.76,2265
17:52:46.139,23139,-0.90,-0.21,0.19,9.49,2266
17:52:46.150,23149,-1.16,0.16,0.18,11.84,2267
17:52:46.164,23159,-1.28,0.99,0.05,16.21,2268
17:52:46.171,23169,-1.25,1.60,-0.14,20.32,2269
17:52:46.180,23179,-1.27,1.66,-0.43,21.35,2270
17:52:46.193,23189,-1.09,1.07,-0.38,15.76,2271
17:52:46.205,23199,-1.25,1.02,-0.14,16.21,2272
17:52:46.214,23209,-1.23,0.61,0.13,13.79,2273
17:52:46.222,23219,-1.22,0.23,0.34,12.89,2274
17:52:46.230,23229,-1.15,0.25,0.51,12.83,2275
17:52:46.239,23239,-0.91,0.57,0.45,11.66,2276
17:52:46.252,23249,-0.87,0.66,0.27,11.32,2277
17:52:46.268,23259,-0.91,0.50,0.16,10.54,2278
17:52:46.271,23269,-0.95,0.33,0.10,10.08,2279
17:52:46.285,23279,-1.03,0.14,0.04,10.38,2280
17:52:46.290,23289,-1.03,0.18,-0.01,10.49,2281
17:52:46.307,23299,-0.99,0.32,0.00,10.44,2282
17:52:46.310,23309,-1.00,0.36,0.01,10.59,2283
17:52:46.320,23319,-1.00,0.39,-0.02,10.70,2284
17:52:46.331,23329,-1.00,0.37,-0.04,10.66,2285
17:52:46.382,23339,-1.02,0.33,-0.04,10.70,2286
17:52:46.382,23349,-1.05,0.31,-0.06,10.91,2287
17:52:46.383,23359,-1.05,0.33,-0.05,11.00,2288
17:52:46.385,23369,-1.02,0.34,-0.14,10.86,2289
17:52:46.386,23379,-1.02,0.34,-0.17,10.92,2290
17:52:46.424,23389,-1.00,0.36,-0.21,10.86,2291
17:52:46.424,23399,-0.97,0.39,-0.23,10.74,2292
17:52:46.425,23409,-0.98,0.45,-0.20,10.96,2293
17:52:46.429,23419,-0.95,0.48,-0.15,10.77,2294
17:52:46.461,23429,-0.94,0.50,-0.10,10.74,2295
17:52:46.461,23439,-0.95,0.46,-0.04,10.61,2296
17:52:46.462,23449,-0.97,0.38,-0.01,10.40,2297
17:52:46.463,23459,-0.98,0.35,0.02,10.42,2298
17:52:46.492,23469,-0.97,0.35,0.03,10.30,2299
17:52:46.494,23479,-0.96,0.46,0.03,10.63,2300
17:52:46.495,23489,-0.94,0.38,0.00,10.17,2301
17:52:46.534,23499,-0.90,0.38,0.02,9.74,2302
17:52:46.535,23509,-0.90,0.35,0.00,9.69,2303
17:52:46.537,23519,-0.93,0.42,0.05,10.22,2304
17:52:46.537,23529,-0.95,0.40,0.08,10.34,2305
17:52:46.540,23539,-0.97,0.38,0.10,10.47,2306
17:52:46.574,23549,-0.94,0.37,0.11,10.19,2307
17:52:46.574,23559,-0.91,0.35,0.10,9.83,2308
17:52:46.575,23569,-0.92,0.35,0.08,9.92,2309
17:52:46.602,23579,-0.97,0.33,0.13,10.31,2310
17:52:46.602,23589,-0.99,0.39,0.10,10.69,2311
17:52:46.604,23599,-0.97,0.40,0.09,10.51,2312
17:52:46.610,23609,-0.95,0.42,0.08,10.40,2313
17:52:46.620,23619,-0.95,0.40,0.08,10.36,2314
17:52:46.630,23629,-0.97,0.39,0.05,10.49,2315
17:52:46.639,23639,-0.99,0.41,0.04,10.71,2316
17:52:46.651,23649,-0.99,0.43,0.01,10.79,2317
17:52:46.661,23659,-0.99,0.45,0.00,10.86,2318
17:52:46.671,23669,-1.02,0.45,-0.02,11.10,2319
17:52:46.680,23679,-1.04,0.44,-0.05,11.32,2320
17:52:46.690,23689,-1.05,0.46,-0.06,11.51,2321
17:52:46.700,23699,-1.04,0.47,-0.06,11.46,2322
17:52:46.712,23709,-1.02,0.46,-0.09,11.17,2323
17:52:46.723,23719,-1.01,0.42,-0.08,11.03,2324
17:52:46.731,23729,-1.03,0.37,-0.10,11.03,2325
17:52:46.741,23739,-1.04,0.34,-0.10,10.96,2326
17:52:46.751,23749,-1.06,0.32,-0.12,11.10,2327
17:52:46.761,23759,-1.05,0.36,-0.12,11.14,2328
17:52:46.772,23769,-1.07,0.42,-0.08,11.51,2329
17:52:46.782,23779,-1.08,0.51,-0.05,11.94,2330
17:52:46.790,23789,-1.07,0.57,-0.06,12.17,2331
17:52:46.801,23799,-1.04,0.65,-0.09,12.27,2332
17:52:46.822,23809,-1.06,0.66,-0.15,12.58,2333
17:52:46.822,23819,-1.08,0.72,-0.19,13.12,2334
17:52:46.838,23829,-1.12,0.81,-0.27,14.08,2335
17:52:46.841,23839,-1.18,0.90,-0.37,15.33,2336
17:52:46.850,23849,-1.22,0.94,-0.71,16.90,2337
17:52:46.865,23859,-1.30,0.86,-0.71,17.15,2338
17:52:46.870,23869,-1.34,0.72,-0.62,16.42,2339
17:52:46.880,23879,-1.29,0.56,-0.51,14.98,2340
17:52:46.896,23889,-1.27,0.36,-0.26,13.42,2341
17:52:46.901,23899,-1.32,0.31,0.10,13.59,2342
17:52:46.918,23909,-1.32,0.42,0.50,14.69,2343
17:52:46.923,23919,-1.36,0.44,0.91,16.98,2344
17:52:46.930,23929,-1.54,0.44,0.96,18.67,2345
17:52:46.944,23939,-1.54,0.29,0.97,18.46,2346
17:52:46.950,23949,-1.30,0.07,0.99,16.32,2347
17:52:46.960,23959,-1.09,-0.18,1.07,15.36,2348
17:52:46.971,23969,-0.78,-0.03,0.95,12.32,2349
17:52:46.980,23979,-0.63,0.20,1.16,13.32,2350
17:52:46.994,23989,-0.40,0.38,1.01,11.51,2351
17:52:47.004,23999,-0.43,0.49,0.68,9.38,2352
17:52:47.011,24009,-0.18,0.69,0.60,9.31,2353
17:52:47.020,24019,-0.10,0.82,0.69,10.74,2354
17:52:47.031,24029,-0.49,0.51,0.64,9.50,2355
17:52:47.047,24039,-0.55,0.28,0.72,9.47,2356
17:52:47.051,24049,-0.50,0.22,0.72,9.02,2357
17:52:47.064,24059,-0.43,0.20,0.70,8.43,2358
17:52:47.073,24069,-0.30,0.23,0.66,7.57,2359
17:52:47.084,24079,-0.25,0.16,0.70,7.59,2360
17:52:47.090,24089,-0.27,0.18,0.70,7.67,2361
17:52:47.143,24099,-0.25,0.16,0.71,7.66,2362
17:52:47.143,24109,-0.36,0.13,0.79,8.79,2363
17:52:47.143,24119,-0.26,0.19,0.67,7.41,2364
17:52:47.146,24129,-0.27,0.23,0.63,7.18,2365
17:52:47.147,24139,-0.30,0.20,0.68,7.65,2366
17:52:47.183,24149,-0.29,0.18,0.64,7.30,2367
17:52:47.183,24159,-0.30,0.15,0.67,7.51,2368
17:52:47.184,24169,-0.31,0.28,0.63,7.57,2369
17:52:47.186,24179,-0.31,0.33,0.63,7.80,2370
17:52:47.221,24189,-0.34,0.37,0.62,7.95,2371
17:52:47.223,24199,-0.39,0.42,0.66,8.70,2372
17:52:47.223,24209,-0.43,0.45,0.64,8.90,2373
17:52:47.225,24219,-0.47,0.43,0.63,8.95,2374
17:52:47.268,24229,-0.51,0.40,0.63,9.05,2375
17:52:47.303,24239,-0.53,0.40,0.56,8.66,2376
17:52:47.305,24249,-0.62,0.33,0.66,9.60,2377
17:52:47.305,24259,-0.68,0.31,0.63,9.78,2378
17:52:47.305,24269,-0.76,0.29,0.59,10.02,2379
17:52:47.331,24279,-0.81,0.29,0.55,10.19,2380
17:52:47.333,24289,-0.82,0.36,0.43,9.90,2381
17:52:47.334,24299,-0.80,0.42,0.33,9.64,2382
17:52:47.354,24309,-0.80,0.49,0.21,9.60,2383
17:52:47.355,24319,-0.84,0.50,0.20,9.99,2384
17:52:47.357,24329,-0.86,0.57,0.07,10.37,2385
17:52:47.372,24339,-0.98,0.43,0.16,10.78,2386
17:52:47.387,24349,-1.09,0.22,0.07,11.12,2387
17:52:47.390,24359,-1.01,0.06,-0.23,10.34,2388
17:52:47.390,24369,-0.80,0.11,-0.48,9.33,2389
17:52:47.390,24379,-0.52,0.33,-0.91,11.01,2390
17:52:47.391,24389,-0.39,0.36,-1.10,12.26,2391
17:52:47.400,24399,-0.47,0.58,-0.90,11.67,2392
17:52:47.410,24409,-0.86,0.28,-0.39,9.89,2393
17:52:47.424,24419,-0.97,0.01,-0.11,9.77,2394
17:52:47.430,24429,-0.95,-0.10,0.11,9.56,2395
17:52:47.440,24439,-1.01,-0.07,0.20,10.30,2396
17:52:47.454,24449,-1.30,0.39,0.10,13.60,2397
17:52:47.460,24459,-1.33,1.25,-0.01,18.25,2398
17:52:47.476,24469,-1.25,1.90,-0.20,22.84,2399
17:52:47.480,24479,-0.84,1.67,-0.31,18.91,2400
17:52:47.492,24489,-0.88,1.14,-0.21,14.58,2401
17:52:47.502,24499,-1.12,1.14,0.27,16.16,2402
17:52:47.510,24509,-1.22,0.46,0.29,13.41,2403
17:52:47.525,24519,-1.39,0.03,0.69,15.53,2404
17:52:47.529,24529,-1.21,0.04,0.62,13.57,2405
17:52:47.540,24539,-0.96,0.35,0.36,10.81,2406
17:52:47.557,24549,-0.93,0.48,0.19,10.65,2407
17:52:47.560,24559,-0.99,0.41,0.02,10.74,2408
17:52:47.574,24569,-1.00,0.32,-0.07,10.48,2409
17:52:47.580,24579,-0.96,0.29,-0.16,10.16,2410
17:52:47.591,24589,-0.91,0.35,-0.19,9.90,2411
17:52:47.601,24599,-0.93,0.39,-0.18,10.23,2412
17:52:47.615,24609,-0.99,0.41,-0.13,10.79,2413
17:52:47.620,24619,-1.03,0.37,-0.12,11.02,2414
17:52:47.633,24629,-1.03,0.29,-0.02,10.67,2415
17:52:47.643,24639,-1.05,0.35,-0.14,11.18,2416
17:52:47.650,24649,-1.04,0.34,-0.15,11.01,2417
17:52:47.660,24659,-1.03,0.34,-0.21,11.02,2418
17:52:47.673,24669,-0.99,0.36,-0.28,10.87,2419
17:52:47.684,24679,-0.98,0.36,-0.30,10.84,2420
17:52:47.691,24689,-1.02,0.39,-0.28,11.25,2421
17:52:47.710,24699,-1.01,0.36,-0.24,11.04,2422
17:52:47.710,24709,-1.00,0.36,-0.20,10.79,2423
17:52:47.723,24719,-0.99,0.37,-0.16,10.68,2424
17:52:47.730,24729,-0.98,0.36,-0.11,10.48,2425
17:52:47.740,24739,-0.97,0.37,-0.06,10.42,2426
17:52:47.750,24749,-0.97,0.39,-0.03,10.45,2427
17:52:47.760,24759,-0.97,0.40,-0.02,10.49,2428
17:52:47.772,24769,-0.97,0.41,-0.02,10.54,2429
17:52:47.781,24779,-0.93,0.43,-0.03,10.24,2430
17:52:47.792,24789,-0.92,0.43,-0.04,10.15,2431
17:52:47.802,24799,-0.92,0.41,-0.02,10.11,2432
17:52:47.853,24809,-0.92,0.40,0.01,10.01,2433
17:52:47.854,24819,-0.92,0.37,0.03,9.95,2434
17:52:47.855,24829,-0.93,0.36,0.06,10.03,2435
17:52:47.856,24839,-0.94,0.35,0.09,10.10,2436
17:52:47.858,24849,-0.94,0.37,0.10,10.20,2437
17:52:47.895,24859,-0.95,0.39,0.13,10.41,2438
17:52:47.895,24869,-0.95,0.37,0.12,10.29,2439
17:52:47.896,24879,-0.97,0.38,0.12,10.43,2440
17:52:47.898,24889,-0.98,0.37,0.11,10.51,2441
17:52:47.899,24899,-0.95,0.38,0.11,10.34,2442
17:52:47.935,24909,-0.92,0.39,0.03,9.99,2443
17:52:47.936,24919,-0.99,0.32,0.10,10.43,2444
17:52:47.938,24929,-1.02,0.38,0.04,10.90,2445
17:52:47.940,24939,-1.08,0.46,-0.07,11.74,2446
17:52:47.969,24949,-1.00,0.45,-0.05,11.02,2447
17:52:47.970,24959,-1.03,0.43,-0.06,11.21,2448
17:52:47.971,24969,-1.06,0.41,-0.08,11.37,2449
17:52:48.002,24979,-1.04,0.40,-0.08,11.17,2450
17:52:48.004,24989,-1.04,0.42,-0.07,11.25,2451
17:52:48.005,24999,-1.03,0.43,-0.09,11.23,2452
17:52:48.044,25009,-1.03,0.47,-0.09,11.39,2453
17:52:48.046,25019,-1.03,0.49,-0.11,11.46,2454
17:52:48.046,25029,-1.04,0.43,-0.14,11.33,2455
17:52:48.047,25039,-1.04,0.42,-0.16,11.38,2456
17:52:48.051,25049,-1.08,0.42,-0.18,11.74,2457
17:52:48.072,25059,-1.14,0.45,-0.17,12.36,2458
17:52:48.072,25069,-1.16,0.51,-0.17,12.78,2459
17:52:48.081,25079,-1.13,0.58,-0.16,12.79,2460
17:52:48.090,25089,-1.11,0.63,-0.20,12.91,2461
17:52:48.102,25099,-1.12,0.68,-0.25,13.34,2462
17:52:48.110,25109,-1.15,0.74,-0.28,13.93,2463
17:52:48.126,25119,-1.19,0.83,-0.25,14.74,2464
17:52:48.130,25129,-1.26,0.92,-0.53,16.51,2465
17:52:48.141,25139,-1.31,0.88,-0.69,17.25,2466
17:52:48.155,25149,-1.36,0.84,-0.60,17.08,2467
17:52:48.160,25159,-1.33,0.71,-0.47,15.80,2468
17:52:48.170,25169,-1.29,0.52,-0.30,14.22,2469
17:52:48.186,25179,-1.27,0.40,0.05,13.36,2470
17:52:48.190,25189,-1.22,0.39,0.49,13.68,2471
17:52:48.201,25199,-1.17,0.39,0.88,15.20,2472
17:52:48.210,25209,-1.29,0.41,1.03,17.04,2473
17:52:48.220,25219,-1.35,0.32,1.01,17.18,2474
17:52:48.238,25229,-1.16,0.13,1.17,16.54,2475
17:52:48.240,25239,-1.01,0.01,1.12,15.06,2476
17:52:48.258,25249,-0.75,0.14,0.91,11.88,2477
17:52:48.260,25259,-0.49,0.26,0.92,10.70,2478
17:52:48.270,25269,-0.36,0.41,0.94,10.88,2479
17:52:48.280,25279,-0.22,0.71,0.45,8.67,2480
17:52:48.290,25289,-0.09,0.76,0.53,9.32,2481
17:52:48.300,25299,-0.21,0.68,0.70,9.97,2482
17:52:48.310,25309,-0.49,0.50,0.58,9.07,2483
17:52:48.320,25319,-0.46,0.35,0.62,8.51,2484
17:52:48.330,25329,-0.47,0.33,0.66,8.70,2485
17:52:48.340,25339,-0.41,0.24,0.69,8.42,2486
17:52:48.350,25349,-0.30,0.12,0.67,7.48,2487
17:52:48.364,25359,-0.25,-0.01,0.95,9.79,2488
17:52:48.370,25369,-0.23,0.30,0.60,7.11,2489
17:52:48.383,25379,-0.24,0.32,0.57,6.98,2490
17:52:48.392,25389,-0.24,0.31,0.66,7.64,2491
17:52:48.401,25399,-0.26,0.32,0.62,7.40,2492
17:52:48.411,25409,-0.27,0.32,0.53,6.75,2493
17:52:48.423,25419,-0.30,0.26,0.59,7.14,2494
17:52:48.432,25429,-0.34,0.33,0.65,8.05,2495
17:52:48.441,25439,-0.37,0.22,0.70,8.22,2496
17:52:48.452,25449,-0.39,0.27,0.66,8.11,2497
17:52:48.461,25459,-0.38,0.31,0.64,8.06,2498
17:52:48.476,25469,-0.39,0.37,0.58,7.89,2499
17:52:48.481,25479,-0.42,0.39,0.58,8.14,2500
17:52:48.492,25489,-0.44,0.43,0.54,8.17,2501
17:52:48.500,25499,-0.48,0.43,0.53,8.37,2502
17:52:48.516,25509,-0.53,0.38,0.54,8.51,2503
17:52:48.520,25519,-0.65,0.32,0.59,9.37,2504
17:52:48.537,25529,-0.76,0.30,0.62,10.24,2505
17:52:48.540,25539,-0.83,0.26,0.63,10.71,2506
17:52:48.553,25549,-0.88,0.24,0.57,10.78,2507
17:52:48.597,25559,-0.93,0.24,0.52,10.92,2508
17:52:48.598,25569,-0.92,0.31,0.41,10.56,2509
17:52:48.598,25579,-0.90,0.41,0.31,10.34,2510
17:52:48.600,25589,-0.84,0.48,0.18,9.84,2511
17:52:48.644,25599,-0.84,0.57,0.14,10.20,2512
17:52:48.685,25609,-0.86,0.57,0.19,10.47,2513
17:52:48.794,25619,-0.89,0.45,0.09,10.03,2514
17:52:48.807,25629,-0.92,0.26,-0.03,9.56,2515
17:52:48.808,25639,-0.81,0.21,-0.35,9.09,2516
17:52:48.809,25649,-0.65,0.15,-0.89,11.10,2517
17:52:48.811,25659,-0.34,0.15,-1.38,14.33,2518
17:52:48.812,25669,-0.45,0.33,-1.14,12.70,2519
17:52:48.817,25679,-0.75,0.20,-0.60,9.79,2520
17:52:48.817,25689,-0.90,0.04,-0.17,9.21,2521
17:52:48.819,25699,-1.05,-0.04,0.10,10.50,2522
17:52:48.823,25709,-1.04,-0.20,0.21,10.81,2523
17:52:48.823,25719,-0.90,-0.14,0.37,9.85,2524
17:52:48.823,25729,-0.98,0.15,0.54,11.31,2525
17:52:48.823,25739,-1.04,0.87,0.08,13.58,2526
17:52:48.823,25749,-1.29,1.41,0.03,19.07,2527
17:52:48.823,25759,-1.30,2.00,-0.18,23.90,2528
17:52:48.823,25769,-0.99,2.00,-0.39,22.60,2529
17:52:48.823,25779,-0.86,1.38,-0.31,16.54,2530
17:52:48.823,25789,-1.21,0.98,-0.06,15.57,2531
17:52:48.823,25799,-1.40,0.22,0.31,14.49,2532
17:52:48.823,25809,-1.44,-0.13,0.60,15.64,2533
17:52:48.823,25819,-1.28,0.05,0.66,14.41,2534
17:52:48.832,25829,-0.96,0.62,0.45,12.24,2535
17:52:48.842,25839,-0.86,0.70,0.21,11.28,2536
17:52:48.853,25849,-0.92,0.35,0.06,9.83,2537
17:52:48.863,25859,-0.92,0.18,0.02,9.39,2538
17:52:48.870,25869,-0.99,0.03,-0.06,9.98,2539
17:52:48.881,25879,-0.98,0.12,-0.06,9.91,2540
17:52:48.896,25889,-0.99,0.30,-0.18,10.49,2541
17:52:48.900,25899,-0.99,0.48,-0.14,11.10,2542
17:52:48.911,25909,-0.93,0.57,-0.22,11.16,2543
17:52:48.927,25919,-0.96,0.50,-0.14,10.89,2544
17:52:48.929,25929,-0.99,0.42,-0.14,10.91,2545
17:52:48.945,25939,-1.01,0.36,-0.12,10.79,2546
17:52:48.950,25949,-1.01,0.27,-0.13,10.50,2547
17:52:48.965,25959,-1.02,0.27,-0.16,10.69,2548
17:52:48.970,25969,-1.06,0.29,-0.17,11.13,2549
17:52:48.983,25979,-1.06,0.32,-0.19,11.27,2550
17:52:48.992,25989,-1.01,0.34,-0.20,10.83,2551
17:52:49.001,25999,-0.99,0.36,-0.17,10.67,2552
17:52:49.014,26009,-0.99,0.39,-0.13,10.70,2553
17:52:49.023,26019,-0.97,0.39,-0.07,10.47,2554
17:52:49.031,26029,-0.98,0.37,-0.02,10.44,2555
17:52:49.044,26039,-0.99,0.36,0.02,10.55,2556
17:52:49.050,26049,-0.98,0.41,0.04,10.62,2557
17:52:49.065,26059,-0.94,0.50,0.04,10.63,2558
17:52:49.070,26069,-0.91,0.50,0.02,10.40,2559
17:52:49.084,26079,-0.89,0.56,0.04,10.57,2560
17:52:49.094,26089,-0.90,0.47,0.01,10.17,2561
17:52:49.104,26099,-0.98,0.29,0.02,10.27,2562
17:52:49.110,26109,-0.91,0.41,0.03,9.93,2563
17:52:49.148,26119,-1.00,0.32,0.06,10.49,2564
17:52:49.148,26129,-0.93,0.36,0.06,9.94,2565
17:52:49.150,26139,-0.90,0.42,0.07,9.95,2566
17:52:49.151,26149,-0.90,0.44,0.09,10.08,2567
17:52:49.160,26159,-0.92,0.43,0.10,10.26,2568
17:52:49.174,26169,-0.97,0.41,0.12,10.59,2569
17:52:49.187,26179,-0.98,0.37,0.13,10.56,2570
17:52:49.191,26189,-0.95,0.35,0.13,10.18,2571
17:52:49.202,26199,-0.91,0.41,0.13,10.07,2572
17:52:49.211,26209,-0.93,0.44,0.15,10.41,2573
17:52:49.229,26219,-0.96,0.42,0.15,10.56,2574
17:52:49.230,26229,-0.97,0.41,0.11,10.57,2575
17:52:49.244,26239,-1.00,0.40,0.10,10.85,2576
17:52:49.250,26249,-1.01,0.42,0.04,10.94,2577
17:52:49.260,26259,-1.01,0.48,-0.01,11.15,2578
17:52:49.272,26269,-1.00,0.49,-0.04,11.17,2579
17:52:49.281,26279,-1.02,0.42,-0.06,11.07,2580
17:52:49.322,26289,-1.05,0.38,-0.09,11.20,2581
17:52:49.323,26299,-1.06,0.36,-0.11,11.25,2582
17:52:49.323,26309,-1.03,0.41,-0.13,11.14,2583
17:52:49.324,26319,-1.00,0.44,-0.16,11.04,2584
17:52:49.363,26329,-0.97,0.43,-0.22,10.83,2585
17:52:49.363,26339,-0.98,0.40,-0.25,10.88,2586
17:52:49.364,26349,-1.01,0.37,-0.27,11.13,2587
17:52:49.366,26359,-1.09,0.36,-0.22,11.66,2588
17:52:49.405,26369,-1.17,0.40,-0.18,12.54,2589
17:52:49.405,26379,-1.23,0.51,-0.15,13.35,2590
17:52:49.405,26389,-1.20,0.66,-0.15,13.76,2591
17:52:49.407,26399,-1.20,0.69,-0.20,13.99,2592
17:52:49.411,26409,-1.19,0.74,-0.22,14.19,2593
17:52:49.446,26419,-1.19,0.79,-0.26,14.52,2594
17:52:49.446,26429,-1.26,0.86,-0.59,16.33,2595
17:52:49.447,26439,-1.34,0.83,-0.79,17.68,2596
17:52:49.451,26449,-1.38,0.79,-0.63,17.14,2597
17:52:49.487,26459,-1.30,0.67,-0.49,15.41,2598
17:52:49.487,26469,-1.23,0.45,-0.26,13.33,2599
17:52:49.488,26479,-1.24,0.38,0.09,13.02,2600
17:52:49.490,26489,-1.20,0.45,0.58,14.07,2601
17:52:49.512,26499,-1.19,0.46,0.95,15.91,2602
17:52:49.521,26509,-1.36,0.45,1.00,17.49,2603
17:52:49.522,26519,-1.38,0.26,1.02,17.39,2604
17:52:49.532,26529,-1.28,0.07,1.12,17.01,2605
17:52:49.540,26539,-1.11,-0.11,1.13,15.86,2606
17:52:49.550,26549,-0.79,0.04,0.96,12.44,2607
17:52:49.567,26559,-0.57,0.30,0.98,11.73,2608
17:52:49.569,26569,-0.43,0.40,0.85,10.30,2609
17:52:49.584,26579,-0.52,0.27,0.73,9.37,2610
17:52:49.590,26589,-0.31,0.54,0.67,9.19,2611
17:52:49.604,26599,-0.28,0.73,0.59,9.78,2612
17:52:49.610,26609,-0.44,0.56,0.76,10.40,2613
17:52:49.623,26619,-0.51,0.34,0.74,9.57,2614
17:52:49.630,26629,-0.52,0.23,0.78,9.62,2615
17:52:49.643,26639,-0.42,0.17,0.76,8.89,2616
17:52:49.652,26649,-0.25,0.09,0.74,7.85,2617
17:52:49.663,26659,-0.17,0.16,0.71,7.44,2618
17:52:49.672,26669,-0.20,0.23,0.71,7.72,2619
17:52:49.679,26679,-0.24,0.15,0.63,6.91,2620
17:52:49.695,26689,-0.21,0.18,0.63,6.86,2621
17:52:49.700,26699,-0.27,0.21,0.66,7.45,2622
17:52:49.712,26709,-0.30,0.17,0.65,7.40,2623
17:52:49.720,26719,-0.33,0.17,0.63,7.30,2624
17:52:49.730,26729,-0.36,0.16,0.67,7.77,2625
17:52:49.740,26739,-0.35,0.17,0.68,7.78,2626
17:52:49.752,26749,-0.35,0.23,0.64,7.64,2627
17:52:49.762,26759,-0.32,0.28,0.60,7.30,2628
17:52:49.772,26769,-0.34,0.33,0.62,7.84,2629
17:52:49.786,26779,-0.37,0.38,0.61,8.07,2630
17:52:49.790,26789,-0.37,0.41,0.61,8.20,2631
17:52:49.800,26799,-0.43,0.43,0.60,8.57,2632
17:52:49.812,26809,-0.48,0.40,0.62,8.77,2633
17:52:49.820,26819,-0.50,0.33,0.74,9.49,2634
17:52:49.837,26829,-0.57,0.37,0.62,9.15,2635
17:52:49.839,26839,-0.65,0.35,0.66,9.90,2636
17:52:49.851,26849,-0.72,0.32,0.65,10.16,2637
17:52:49.860,26859,-0.78,0.28,0.61,10.24,2638
17:52:49.870,26869,-0.81,0.31,0.51,10.07,2639
17:52:49.880,26879,-0.82,0.41,0.39,9.93,2640
17:52:49.890,26889,-0.79,0.49,0.35,9.92,2641
17:52:49.910,26899,-0.81,0.49,0.19,9.63,2642
17:52:49.911,26909,-0.73,0.44,0.06,8.58,2643
17:52:49.931,26919,-0.82,0.55,0.10,9.97,2644
17:52:49.932,26929,-0.98,0.46,0.22,11.07,2645
17:52:49.993,26939,-1.00,0.24,0.08,10.31,2646
17:52:49.993,26949,-0.98,0.16,-0.12,9.95,2647
17:52:49.994,26959,-0.74,0.27,-0.38,8.76,2648
17:52:49.996,26969,-0.56,0.18,-0.77,9.69,2649
17:52:49.997,26979,-0.39,0.28,-1.08,11.84,2650
17:52:49.998,26989,-0.66,0.31,-0.85,11.27,2651
17:52:50.035,26999,-0.97,0.13,-0.51,11.03,2652
17:52:50.035,27009,-1.11,-0.01,-0.21,11.30,2653
17:52:50.036,27019,-1.02,-0.10,-0.06,10.29,2654
17:52:50.037,27029,-1.00,-0.11,0.05,10.08,2655
17:52:50.040,27039,-1.21,0.27,-0.02,12.37,2656
17:52:50.075,27049,-1.32,1.21,-0.01,17.90,2657
17:52:50.193,27059,-1.20,1.91,-0.19,22.64,2658
17:52:50.219,27069,-1.05,1.72,-0.38,20.47,2659
17:52:50.220,27079,-0.80,1.15,-0.15,14.05,2660
17:52:50.221,27089,-0.90,1.18,-0.02,14.85,2661
17:52:50.222,27099,-0.97,0.83,0.21,12.94,2662
17:52:50.223,27109,-1.26,0.28,0.48,13.75,2663
17:52:50.228,27119,-1.32,0.09,0.43,13.89,2664
17:52:50.231,27129,-1.16,0.05,0.42,12.40,2665
17:52:50.231,27139,-1.03,0.31,0.25,11.07,2666
17:52:50.231,27149,-0.99,0.42,0.07,10.82,2667
17:52:50.231,27159,-0.97,0.32,-0.08,10.30,2668
17:52:50.231,27169,-0.94,0.33,-0.09,9.98,2669
17:52:50.231,27179,-0.89,0.38,-0.11,9.77,2670
17:52:50.231,27189,-0.88,0.47,-0.10,10.02,2671
17:52:50.231,27199,-0.92,0.46,-0.08,10.37,2672
17:52:50.231,27209,-0.97,0.49,-0.04,10.82,2673
17:52:50.231,27219,-0.96,0.47,-0.05,10.70,2674
17:52:50.231,27229,-0.96,0.43,-0.04,10.54,2675
17:52:50.246,27239,-1.00,0.39,-0.07,10.76,2676
17:52:50.250,27249,-1.03,0.36,-0.12,10.94,2677
17:52:50.265,27259,-1.05,0.34,-0.18,11.17,2678
17:52:50.270,27269,-1.00,0.36,-0.24,10.94,2679
17:52:50.281,27279,-0.97,0.39,-0.24,10.72,2680
17:52:50.290,27289,-0.97,0.43,-0.22,10.83,2681
17:52:50.298,27299,-0.96,0.45,-0.20,10.77,2682
17:52:50.316,27309,-0.95,0.44,-0.17,10.61,2683
17:52:50.320,27319,-0.98,0.40,-0.14,10.68,2684
17:52:50.332,27329,-1.02,0.37,-0.13,10.93,2685
17:52:50.343,27339,-1.03,0.33,-0.07,10.84,2686
17:52:50.354,27349,-1.03,0.31,-0.07,10.80,2687
17:52:50.362,27359,-1.01,0.32,-0.05,10.58,2688
17:52:50.372,27369,-0.98,0.39,-0.09,10.62,2689
17:52:50.382,27379,-0.94,0.42,-0.10,10.32,2690
17:52:50.392,27389,-0.92,0.43,-0.11,10.19,2691
17:52:50.424,27399,-0.92,0.44,-0.09,10.27,2692
17:52:50.424,27409,-0.94,0.40,-0.08,10.23,2693
17:52:50.426,27419,-0.96,0.38,-0.06,10.36,2694
17:52:50.431,27429,-0.96,0.34,-0.01,10.22,2695
17:52:50.440,27439,-0.96,0.35,0.01,10.22,2696
17:52:50.450,27449,-0.95,0.36,0.05,10.16,2697
17:52:50.460,27459,-0.93,0.39,0.09,10.18,2698
17:52:50.475,27469,-0.93,0.43,0.11,10.31,2699
17:52:50.480,27479,-0.94,0.42,0.15,10.43,2700
17:52:50.491,27489,-0.93,0.44,0.16,10.39,2701
17:52:50.501,27499,-0.95,0.40,0.14,10.36,2702
17:52:50.516,27509,-0.97,0.36,0.15,10.48,2703
17:52:50.520,27519,-0.99,0.36,0.11,10.55,2704
17:52:50.532,27529,-0.98,0.37,0.08,10.45,2705
17:52:50.541,27539,-0.97,0.37,0.02,10.42,2706
17:52:50.550,27549,-0.98,0.39,-0.01,10.57,2707
17:52:50.560,27559,-1.00,0.39,-0.06,10.81,2708
17:52:50.575,27569,-1.03,0.39,-0.07,11.07,2709
17:52:50.580,27579,-1.06,0.39,-0.08,11.36,2710
17:52:50.602,27589,-1.06,0.42,-0.09,11.38,2711
17:52:50.602,27599,-1.02,0.44,-0.10,11.17,2712
17:52:50.613,27609,-1.01,0.48,-0.09,11.23,2713
17:52:50.620,27619,-1.02,0.47,-0.13,11.26,2714
17:52:50.635,27629,-1.03,0.39,-0.16,11.13,2715
17:52:50.640,27639,-1.06,0.37,-0.20,11.43,2716
17:52:50.656,27649,-1.10,0.39,-0.24,11.92,2717
17:52:50.660,27659,-1.15,0.43,-0.22,12.48,2718
17:52:50.671,27669,-1.20,0.47,-0.20,13.09,2719
17:52:50.681,27679,-1.19,0.56,-0.19,13.31,2720
17:52:50.693,27689,-1.18,0.63,-0.22,13.57,2721
17:52:50.702,27699,-1.16,0.69,-0.23,13.73,2722
17:52:50.710,27709,-1.16,0.73,-0.29,14.06,2723
17:52:50.721,27719,-1.19,0.79,-0.29,14.60,2724
17:52:50.739,27729,-1.26,0.88,-0.61,16.49,2725
17:52:50.740,27739,-1.30,0.90,-0.62,16.99,2726
17:52:50.750,27749,-1.28,0.96,-0.46,16.64,2727
17:52:50.760,27759,-1.18,0.88,-0.38,15.16,2728
17:52:50.776,27769,-1.17,0.72,-0.19,13.89,2729
17:52:50.781,27779,-1.19,0.59,0.11,13.34,2730
17:52:50.828,27789,-1.15,0.53,0.52,13.67,2731
17:52:50.828,27799,-1.08,0.43,0.98,15.20,2732
17:52:50.828,27809,-1.05,0.44,1.22,16.70,2733
17:52:50.830,27819,-1.22,0.29,1.22,17.51,2734
17:52:50.831,27829,-1.18,0.17,1.12,16.37,2735
17:52:50.868,27839,-0.98,0.04,0.98,13.84,2736
17:52:50.868,27849,-0.69,0.14,1.00,12.20,2737
17:52:50.870,27859,-0.56,0.30,0.97,11.62,2738
17:52:50.871,27869,-0.55,0.31,0.87,10.76,2739
17:52:50.908,27879,-0.34,0.52,0.63,8.82,2740
17:52:50.909,27889,-0.33,0.45,0.60,8.22,2741
17:52:50.912,27899,-0.50,0.45,0.57,8.80,2742
17:52:50.913,27909,-0.49,0.32,0.64,8.68,2743
17:52:50.950,27919,-0.51,0.22,0.71,9.02,2744
17:52:50.951,27929,-0.50,0.15,0.80,9.51,2745
17:52:50.952,27939,-0.42,0.11,0.74,8.61,2746
17:52:50.954,27949,-0.26,0.08,0.62,6.81,2747
17:52:50.992,27959,-0.19,0.17,0.64,6.86,2748
17:52:50.992,27969,-0.24,0.29,0.65,7.52,2749
17:52:50.993,27979,-0.30,0.21,0.65,7.51,2750
17:52:50.994,27989,-0.30,0.25,0.58,7.03,2751
17:52:51.019,27999,-0.65,0.05,-0.09,6.55,2752
17:52:51.020,28009,-0.44,0.29,0.49,7.18,2753
17:52:51.021,28019,-0.49,0.16,0.60,7.92,2754
17:52:51.033,28029,-0.46,0.19,0.62,7.99,2755
17:52:51.042,28039,-0.47,0.21,0.64,8.24,2756
17:52:51.050,28049,-0.47,0.24,0.64,8.31,2757
17:52:51.064,28059,-0.46,0.27,0.63,8.23,2758
17:52:51.070,28069,-0.41,0.32,0.59,7.90,2759
17:52:51.083,28079,-0.44,0.35,0.59,8.18,2760
17:52:51.090,28089,-0.48,0.38,0.60,8.61,2761
17:52:51.106,28099,-0.55,0.42,0.67,9.61,2762
17:52:51.110,28109,-0.57,0.47,0.66,9.87,2763
17:52:51.124,28119,-0.55,0.37,0.59,8.88,2764
17:52:51.130,28129,-0.58,0.42,0.55,8.96,2765
17:52:51.140,28139,-0.62,0.41,0.50,8.93,2766
17:52:51.156,28149,-0.70,0.37,0.48,9.27,2767
17:52:51.160,28159,-0.78,0.35,0.49,9.90,2768
17:52:51.178,28169,-0.85,0.36,0.46,10.34,2769
17:52:51.180,28179,-0.87,0.39,0.36,10.16,2770
17:52:51.190,28189,-0.85,0.42,0.28,9.89,2771
17:52:51.206,28199,-0.82,0.48,0.16,9.61,2772
17:52:51.210,28209,-0.82,0.52,0.12,9.76,2773
17:52:51.220,28219,-0.81,0.57,0.08,9.94,2774
17:52:51.230,28229,-0.84,0.45,0.00,9.51,2775
17:52:51.244,28239,-0.94,0.36,0.04,10.02,2776
17:52:51.270,28249,-0.93,0.25,-0.10,9.69,2777
17:52:51.283,28259,-0.81,0.17,-0.28,8.79,2778
17:52:51.283,28269,-0.70,0.23,-0.56,9.26,2779
17:52:51.285,28279,-0.49,0.25,-0.83,9.91,2780
17:52:51.290,28289,-0.42,0.45,-0.85,10.44,2781
17:52:51.300,28299,-0.72,0.36,-0.58,9.98,2782
17:52:51.319,28309,-0.99,0.09,-0.25,10.22,2783
17:52:51.319,28319,-0.96,-0.04,-0.01,9.58,2784
17:52:51.337,28329,-0.91,-0.01,0.14,9.22,2785
17:52:51.340,28339,-1.13,0.18,0.10,11.49,2786
17:52:51.351,28349,-1.23,1.01,0.10,15.96,2787
17:52:51.360,28359,-1.41,1.61,0.44,21.82,2788
17:52:51.372,28369,-1.15,1.73,-0.22,20.92,2789
17:52:51.383,28379,-0.96,1.27,-0.33,16.30,2790
17:52:51.392,28389,-1.11,0.99,0.03,14.89,2791
17:52:51.402,28399,-1.16,0.63,0.18,13.36,2792
17:52:51.413,28409,-1.30,0.24,0.35,13.65,2793
17:52:51.421,28419,-1.36,0.06,0.57,14.76,2794
17:52:51.435,28429,-1.06,0.33,0.49,12.10,2795
17:52:51.439,28439,-0.88,0.54,0.34,10.88,2796
17:52:51.450,28449,-0.82,0.60,0.13,10.27,2797
17:52:51.466,28459,-0.88,0.53,0.02,10.28,2798
17:52:51.477,28469,-0.96,0.35,-0.03,10.22,2799
17:52:51.482,28479,-0.94,0.47,-0.12,10.55,2800
17:52:51.541,28489,-0.90,0.43,-0.11,10.00,2801
17:52:51.542,28499,-0.91,0.44,-0.16,10.23,2802
17:52:51.543,28509,-0.97,0.43,-0.16,10.71,2803
17:52:51.649,28519,-1.01,0.39,-0.18,11.02,2804
17:52:51.650,28529,-1.05,0.37,-0.19,11.27,2805
17:52:51.651,28539,-1.04,0.35,-0.19,11.14,2806
17:52:51.652,28549,-1.04,0.37,-0.20,11.22,2807
17:52:51.653,28559,-1.02,0.37,-0.24,11.13,2808
17:52:51.682,28569,-1.02,0.33,-0.24,10.95,2809
17:52:51.682,28579,-1.05,0.31,-0.22,11.14,2810
17:52:51.684,28589,-1.04,0.35,-0.21,11.19,2811
17:52:51.688,28599,-1.00,0.39,-0.22,10.97,2812
17:52:51.688,28609,-0.99,0.41,-0.18,10.90,2813
17:52:51.688,28619,-1.00,0.37,-0.14,10.77,2814
17:52:51.688,28629,-1.00,0.32,-0.09,10.52,2815
17:52:51.688,28639,-1.00,0.32,-0.05,10.51,2816
17:52:51.688,28649,-0.99,0.36,-0.02,10.54,2817
17:52:51.688,28659,-0.98,0.40,-0.02,10.53,2818
17:52:51.688,28669,-0.96,0.42,-0.04,10.47,2819
17:52:51.688,28679,-0.96,0.41,-0.05,10.42,2820
17:52:51.725,28689,-0.96,0.39,-0.04,10.35,2821
17:52:51.727,28699,-0.95,0.39,-0.01,10.24,2822
17:52:51.727,28709,-0.92,0.42,0.03,10.12,2823
17:52:51.727,28719,-0.89,0.42,0.07,9.89,2824
17:52:51.747,28729,-0.88,0.45,0.11,9.95,2825
17:52:51.748,28739,-0.87,0.49,0.16,10.15,2826
17:52:51.750,28749,-0.90,0.47,0.16,10.26,2827
17:52:51.766,28759,-0.90,0.44,0.16,10.14,2828
17:52:51.769,28769,-0.91,0.39,0.15,10.02,2829
17:52:51.784,28779,-0.93,0.37,0.16,10.16,2830
17:52:51.794,28789,-0.96,0.35,0.16,10.32,2831
17:52:51.803,28799,-0.96,0.36,0.17,10.37,2832
17:52:51.810,28809,-0.95,0.40,0.14,10.44,2833
17:52:51.826,28819,-0.96,0.39,0.12,10.49,2834
17:52:51.832,28829,-0.98,0.40,0.08,10.59,2835
17:52:51.841,28839,-0.99,0.39,0.05,10.62,2836
17:52:51.859,28849,-1.01,0.39,0.01,10.85,2837
17:52:51.860,28859,-1.03,0.39,-0.02,11.04,2838
17:52:51.877,28869,-1.04,0.42,-0.04,11.23,2839
17:52:51.881,28879,-1.06,0.45,-0.08,11.56,2840
17:52:51.892,28889,-1.07,0.48,-0.10,11.76,2841
17:52:51.900,28899,-1.06,0.45,-0.14,11.62,2842
17:52:51.911,28909,-1.04,0.44,-0.17,11.39,2843
17:52:51.927,28919,-1.01,0.43,-0.18,11.13,2844
17:52:51.929,28929,-1.01,0.41,-0.20,11.12,2845
17:52:51.941,28939,-1.05,0.40,-0.23,11.41,2846
17:52:51.951,28949,-1.06,0.41,-0.22,11.61,2847
17:52:51.967,28959,-1.11,0.43,-0.24,12.13,2848
17:52:51.969,28969,-1.15,0.48,-0.22,12.71,2849
17:52:51.984,28979,-1.16,0.55,-0.19,13.03,2850
17:52:51.990,28989,-1.12,0.67,-0.19,13.19,2851
17:52:52.008,28999,-1.10,0.72,-0.26,13.44,2852
17:52:52.011,29009,-1.12,0.74,-0.30,13.72,2853
17:52:52.021,29019,-1.17,0.77,-0.32,14.36,2854
17:52:52.032,29029,-1.30,0.85,-0.51,16.30,2855
17:52:52.041,29039,-1.34,0.85,-0.78,17.68,2856
17:52:52.055,29049,-1.38,0.82,-0.68,17.41,2857
17:52:52.061,29059,-1.33,0.71,-0.53,15.98,2858
17:52:52.070,29069,-1.26,0.51,-0.35,14.06,2859
17:52:52.080,29079,-1.32,0.33,-0.02,13.61,2860
17:52:52.091,29089,-1.27,0.36,0.49,14.06,2861
17:52:52.103,29099,-1.27,0.41,0.83,15.71,2862
17:52:52.110,29109,-1.43,0.40,1.09,18.42,2863
17:52:52.128,29119,-1.61,0.29,1.14,19.91,2864
17:52:52.130,29129,-1.46,0.07,1.15,18.58,2865
17:52:52.146,29139,-1.15,-0.14,1.14,16.24,2866
17:52:52.150,29149,-0.82,0.12,0.92,12.42,2867
17:52:52.160,29159,-0.53,0.27,1.12,12.73,2868
17:52:52.175,29169,-0.42,0.37,1.09,12.24,2869
17:52:52.184,29179,-0.36,0.64,0.60,9.52,2870
17:52:52.191,29189,-0.24,0.78,0.55,9.87,2871
17:52:52.201,29199,-0.23,0.81,0.63,10.53,2872
17:52:52.252,29209,-0.46,0.57,0.70,10.15,2873
17:52:52.252,29219,-0.47,0.38,0.74,9.57,2874
17:52:52.253,29229,-0.45,0.28,0.75,9.20,2875
17:52:52.255,29239,-0.36,0.17,0.70,8.05,2876
17:52:52.257,29249,-0.21,0.14,0.69,7.37,2877
17:52:52.289,29259,-0.20,0.18,0.71,7.57,2878
17:52:52.294,29269,-0.18,0.24,0.92,9.69,2879
17:52:52.294,29279,-0.20,0.19,0.70,7.49,2880
17:52:52.294,29289,-0.20,0.23,0.71,7.73,2881
17:52:52.331,29299,-0.24,0.22,0.63,7.12,2882
17:52:52.331,29309,-0.23,0.29,0.64,7.38,2883
17:52:52.332,29319,-0.32,0.22,0.74,8.34,2884
17:52:52.334,29329,-0.30,0.19,0.72,7.97,2885
17:52:52.372,29339,-0.30,0.24,0.72,8.13,2886
17:52:52.373,29349,-0.31,0.29,0.71,8.25,2887
17:52:52.374,29359,-0.30,0.37,0.67,8.26,2888
17:52:52.374,29369,-0.32,0.40,0.60,7.91,2889
17:52:52.413,29379,-0.38,0.41,0.57,8.03,2890
17:52:52.413,29389,-0.44,0.42,0.61,8.60,2891
17:52:52.415,29399,-0.42,0.15,0.77,8.91,2892
17:52:52.416,29409,-0.58,0.33,0.61,9.05,2893
17:52:52.451,29419,-0.65,0.32,0.71,10.17,2894
17:52:52.452,29429,-0.78,0.21,1.02,12.97,2895
17:52:52.453,29439,-0.82,0.19,0.63,10.56,2896
17:52:52.454,29449,-0.86,0.24,0.57,10.54,2897
17:52:52.460,29459,-0.83,0.30,0.47,10.01,2898
17:52:52.472,29469,-0.75,0.43,0.37,9.43,2899
17:52:52.488,29479,-0.76,0.46,0.25,9.19,2900
17:52:52.490,29489,-0.79,0.51,0.18,9.53,2901
17:52:52.503,29499,-0.81,0.58,0.16,10.04,2902
17:52:52.513,29509,-0.94,0.56,0.18,11.13,2903
17:52:52.520,29519,-1.04,0.22,0.07,10.68,2904
17:52:52.530,29529,-1.02,0.07,-0.18,10.36,2905
17:52:52.550,29539,-0.82,0.07,-0.44,9.33,2906
17:52:52.550,29549,-0.57,0.16,-0.83,10.20,2907
17:52:52.572,29559,-0.26,0.43,-1.15,12.50,2908
17:52:52.572,29569,-0.39,0.52,-0.95,11.46,2909
17:52:52.588,29579,-0.74,0.21,-0.41,8.74,2910
17:52:52.588,29589,-0.85,0.12,-0.05,8.62,2911
17:52:52.601,29599,-0.96,0.09,0.16,9.80,2912
17:52:52.618,29609,-0.95,-0.05,0.18,9.71,2913
17:52:52.626,29619,-0.97,0.15,0.38,10.51,2914
17:52:52.629,29629,-1.15,0.55,0.51,13.67,2915
17:52:52.647,29639,-1.29,1.14,-0.03,17.22,2916
17:52:52.649,29649,-1.22,1.39,-0.12,18.59,2917
17:52:52.662,29659,-1.08,1.67,-0.34,20.20,2918
17:52:52.671,29669,-1.05,1.38,-0.54,18.18,2919
17:52:52.681,29679,-1.09,1.21,-0.07,16.29,2920
17:52:52.696,29689,-1.16,0.97,0.07,15.14,2921
17:52:52.701,29699,-1.32,0.24,0.23,13.59,2922
17:52:52.717,29709,-1.39,0.05,0.45,14.63,2923
17:52:52.720,29719,-1.17,0.45,0.47,13.41,2924
17:52:52.730,29729,-0.87,0.85,0.32,12.55,2925
17:52:52.740,29739,-0.84,0.71,0.11,11.08,2926
17:52:52.751,29749,-0.87,0.30,-0.08,9.19,2927
17:52:52.760,29759,-1.00,-0.09,-0.19,10.24,2928
17:52:52.777,29769,-1.18,-0.20,-0.10,11.96,2929
17:52:52.778,29779,-1.26,-0.16,-0.07,12.75,2930
17:52:52.796,29789,-1.15,0.15,-0.10,11.64,2931
17:52:52.802,29799,-0.96,0.50,-0.15,10.97,2932
17:52:52.814,29809,-0.90,0.57,-0.14,10.74,2933
17:52:52.823,29819,-0.96,0.43,-0.06,10.56,2934
17:52:52.832,29829,-1.01,0.35,-0.04,10.69,2935
17:52:52.843,29839,-1.04,0.31,-0.07,10.90,2936
17:52:52.850,29849,-1.05,0.28,-0.10,10.89,2937
17:52:52.863,29859,-1.04,0.31,-0.13,10.91,2938
17:52:52.874,29869,-1.02,0.37,-0.15,10.90,2939
17:52:52.881,29879,-0.99,0.40,-0.16,10.81,2940
17:52:52.939,29889,-0.98,0.43,-0.14,10.74,2941
17:52:52.939,29899,-0.96,0.41,-0.12,10.54,2942
17:52:52.987,29909,-0.96,0.40,-0.06,10.41,2943
17:52:52.988,29919,-0.96,0.38,-0.03,10.32,2944
17:52:52.988,29929,-0.96,0.40,0.01,10.37,2945
17:52:52.988,29939,-0.92,0.44,0.03,10.25,2946
17:52:52.990,29949,-0.91,0.46,0.05,10.24,2947
17:52:53.025,29959,-0.90,0.47,0.04,10.21,2948
17:52:53.025,29969,-0.93,0.49,0.03,10.55,2949
17:52:53.027,29979,-0.97,0.46,0.02,10.71,2950
17:52:53.028,29989,-0.92,0.32,0.05,9.74,2951
17:52:53.033,29999,-0.95,0.33,0.05,10.11,2952
17:52:53.033,30009,-0.93,0.42,0.04,10.17,2953
17:52:53.033,30019,-0.91,0.33,0.05,9.69,2954
17:52:53.033,30029,-0.94,0.44,0.06,10.42,2955
17:52:53.063,30039,-0.97,0.45,0.06,10.73,2956
17:52:53.064,30049,-0.98,0.42,0.05,10.67,2957
17:52:53.065,30059,-0.95,0.39,0.04,10.33,2958
17:52:53.105,30069,-0.95,0.39,0.03,10.24,2959
17:52:53.105,30079,-0.94,0.40,0.04,10.20,2960
17:52:53.106,30089,-0.97,0.40,0.03,10.52,2961
17:52:53.107,30099,-0.98,0.40,0.02,10.55,2962
17:52:53.110,30109,-0.97,0.41,0.02,10.51,2963
17:52:53.145,30119,-0.95,0.42,0.03,10.39,2964
17:52:53.145,30129,-0.96,0.44,0.03,10.55,2965
17:52:53.147,30139,-0.99,0.45,0.04,10.83,2966
17:52:53.150,30149,-0.99,0.43,0.03,10.79,2967
17:52:53.160,30159,-0.98,0.43,-0.00,10.74,2968
17:52:53.175,30169,-0.98,0.45,-0.04,10.83,2969
17:52:53.185,30179,-0.99,0.48,-0.05,11.02,2970
17:52:53.193,30189,-1.01,0.51,-0.05,11.31,2971
17:52:53.204,30199,-1.01,0.47,-0.04,11.15,2972
17:52:53.213,30209,-1.03,0.41,-0.06,11.11,2973
17:52:53.222,30219,-1.02,0.39,-0.06,10.91,2974
17:52:53.231,30229,-0.99,0.41,-0.07,10.72,2975
17:52:53.242,30239,-0.96,0.42,-0.10,10.48,2976
17:52:53.250,30249,-0.96,0.39,-0.15,10.52,2977
17:52:53.260,30259,-1.00,0.34,-0.18,10.74,2978
17:52:53.275,30269,-1.03,0.33,-0.21,11.05,2979
17:52:53.279,30279,-1.05,0.38,-0.20,11.33,2980
17:52:53.296,30289,-1.11,0.46,-0.23,12.20,2981
17:52:53.301,30299,-1.17,0.54,-0.15,12.94,2982
17:52:53.311,30309,-1.14,0.71,-0.17,13.55,2983
17:52:53.321,30319,-1.12,0.76,-0.19,13.64,2984
17:52:53.331,30329,-1.13,0.76,-0.23,13.79,2985
17:52:53.345,30339,-1.17,0.80,-0.30,14.46,2986
17:52:53.350,30349,-1.27,0.84,-0.71,16.77,2987
