time,timestamps,ax,ay,az,mag,time2
15:36:07.808,39684,-0.81,-0.17,-1.19,14.50,3920
15:36:07.824,39694,-0.71,-0.17,-1.20,14.01,3921
15:36:07.827,39704,-0.73,-0.11,-1.18,13.89,3922
15:36:07.839,39714,-0.78,-0.06,-1.19,14.21,3923
15:36:07.853,39724,-0.80,-0.04,-1.18,14.25,3924
15:36:07.857,39734,-0.78,-0.03,-1.15,13.93,3925
15:36:07.873,39744,-0.72,-0.01,-1.10,13.15,3926
15:36:07.877,39754,-0.67,0.05,-1.11,12.96,3927
15:36:07.916,39764,-0.66,0.07,-1.13,13.12,3928
15:36:07.917,39774,-0.65,0.02,-1.13,13.00,3929
15:36:07.918,39784,-0.65,-0.01,-1.13,13.05,3930
15:36:07.921,39794,-0.67,-0.07,-1.11,12.95,3931
15:36:07.958,39804,-0.68,-0.12,-1.08,12.83,3932
15:36:07.958,39814,-0.75,-0.15,-1.09,13.32,3933
15:36:07.960,39824,-0.75,-0.12,-1.11,13.44,3934
15:36:07.961,39834,-0.60,-0.06,-1.13,12.83,3935
15:36:07.995,39844,-0.68,-0.16,-1.09,12.96,3936
15:36:07.996,39854,-0.82,-0.20,-1.11,13.92,3937
15:36:07.997,39864,-0.79,-0.15,-1.08,13.43,3938
15:36:07.999,39874,-0.84,-0.11,-1.06,13.56,3939
15:36:08.036,39884,-0.91,-0.07,-1.04,13.84,3940
15:36:08.037,39894,-0.88,-0.05,-0.98,13.20,3941
15:36:08.041,39904,-0.84,-0.10,-0.89,12.24,3942
15:36:08.041,39914,-0.81,-0.17,-0.81,11.62,3943
15:36:08.078,39924,-0.78,-0.33,-0.65,10.65,3944
15:36:08.080,39934,-0.71,-0.52,-0.55,10.36,3945
15:36:08.128,39944,-0.78,-0.63,-0.52,11.32,3946
15:36:08.128,39954,-0.93,-0.56,-0.55,12.15,3947
15:36:08.130,39964,-1.06,-0.40,-0.52,12.51,3948
15:36:08.146,39974,-1.07,-0.25,-0.44,11.87,3949
15:36:08.148,39984,-0.89,-0.12,-0.45,10.05,3950
15:36:08.149,39994,-0.51,-0.17,-0.45,7.02,3951
15:36:08.150,40004,-0.41,-0.61,-0.04,7.34,3952
15:36:08.151,40014,-0.34,-0.75,-0.07,8.25,3953
15:36:08.153,40024,-0.28,-0.79,0.05,8.45,3954
15:36:08.157,40034,-0.30,-0.60,0.14,6.89,3955
15:36:08.173,40044,-0.54,-0.40,-0.02,6.70,3956
15:36:08.177,40054,-0.69,-0.17,-0.03,7.08,3957
15:36:08.191,40064,-0.83,-0.01,-0.34,8.96,3958
15:36:08.199,40074,-0.91,0.03,-0.50,10.34,3959
15:36:08.213,40084,-0.94,0.03,-0.66,11.48,3960
15:36:08.217,40094,-0.99,-0.23,-0.68,12.27,3961
15:36:08.230,40104,-2.13,-2.00,0.43,29.53,3962
15:36:08.238,40114,-2.13,-2.00,-0.81,30.32,3963
15:36:08.247,40124,-0.60,-0.98,-0.05,11.49,3964
15:36:08.257,40134,0.38,-0.76,0.27,8.89,3965
15:36:08.273,40144,-1.08,-0.90,0.24,14.26,3966
15:36:08.277,40154,-2.13,0.30,-0.20,21.55,3967
15:36:08.293,40164,-2.13,0.61,-0.70,23.17,3968
15:36:08.301,40174,-1.25,-0.44,-1.05,16.91,3969
15:36:08.307,40184,-0.62,-1.67,-1.39,22.59,3970
15:36:08.318,40194,0.16,-2.00,-1.16,23.24,3971
15:36:08.330,40204,0.07,-1.22,-0.37,12.76,3972
15:36:08.340,40214,-0.69,-0.13,-0.07,7.05,3973
15:36:08.350,40224,-1.44,0.74,-0.20,16.29,3974
15:36:08.359,40234,-2.12,0.64,-0.37,22.46,3975
15:36:08.367,40244,-1.45,0.19,0.29,14.95,3976
15:36:08.381,40254,-0.87,-0.50,0.00,10.06,3977
15:36:08.388,40264,-0.78,-0.89,-0.28,12.21,3978
15:36:08.397,40274,-0.65,-0.89,-0.25,11.34,3979
15:36:08.416,40284,-0.69,-0.80,-0.24,10.81,3980
15:36:08.418,40294,-0.88,-0.64,-0.21,11.09,3981
15:36:08.427,40304,-0.99,-0.49,-0.18,11.21,3982
15:36:08.437,40314,-0.97,-0.44,-0.14,10.69,3983
15:36:08.449,40324,-0.94,-0.46,-0.14,10.56,3984
15:36:08.462,40334,-0.94,-0.49,-0.15,10.72,3985
15:36:08.470,40344,-0.97,-0.47,-0.16,10.92,3986
15:36:08.477,40354,-0.98,-0.47,-0.17,11.03,3987
15:36:08.492,40364,-0.97,-0.49,-0.19,11.03,3988
15:36:08.498,40374,-0.96,-0.49,-0.19,10.93,3989
15:36:08.507,40384,-0.95,-0.47,-0.21,10.83,3990
15:36:08.518,40394,-0.94,-0.48,-0.25,10.82,3991
15:36:08.528,40404,-0.92,-0.52,-0.26,10.87,3992
15:36:08.538,40414,-0.88,-0.56,-0.28,10.77,3993
15:36:08.551,40424,-0.85,-0.60,-0.30,10.82,3994
15:36:08.581,40434,-0.76,-0.60,-0.24,9.99,3995
15:36:08.582,40444,-0.92,-0.60,-0.35,11.53,3996
15:36:08.582,40454,-0.91,-0.55,-0.39,11.34,3997
15:36:08.603,40464,-0.96,-0.50,-0.39,11.50,3998
15:36:08.603,40474,-0.98,-0.43,-0.38,11.41,3999
15:36:08.619,40484,-0.98,-0.43,-0.38,11.41,4000
15:36:08.621,40494,-0.98,-0.44,-0.39,11.43,4001
15:36:08.628,40504,-0.97,-0.44,-0.39,11.38,4002
15:36:08.641,40514,-0.99,-0.48,-0.41,11.69,4003
15:36:08.647,40524,-0.99,-0.46,-0.42,11.70,4004
15:36:08.658,40534,-0.99,-0.47,-0.41,11.65,4005
15:36:08.670,40544,-0.98,-0.49,-0.40,11.67,4006
15:36:08.680,40554,-0.94,-0.51,-0.36,11.31,4007
15:36:08.687,40564,-0.93,-0.52,-0.33,11.17,4008
15:36:08.702,40574,-0.94,-0.53,-0.30,11.24,4009
15:36:08.735,40584,-0.97,-0.47,-0.29,11.17,4010
15:36:08.735,40594,-0.98,-0.47,-0.31,11.31,4011
15:36:08.735,40604,-1.00,-0.48,-0.30,11.52,4012
15:36:08.737,40614,-1.00,-0.50,-0.32,11.64,4013
15:36:08.775,40624,-0.99,-0.54,-0.33,11.74,4014
15:36:08.777,40634,-0.98,-0.55,-0.33,11.71,4015
15:36:08.778,40644,-0.94,-0.54,-0.32,11.32,4016
15:36:08.778,40654,-0.94,-0.54,-0.26,11.09,4017
15:36:08.817,40664,-0.96,-0.45,-0.24,10.87,4018
15:36:08.817,40674,-1.04,-0.43,-0.20,11.44,4019
15:36:08.818,40684,-1.05,-0.46,-0.25,11.74,4020
15:36:08.819,40694,-1.04,-0.52,-0.25,11.92,4021
15:36:08.859,40704,-1.04,-0.56,-0.26,12.07,4022
15:36:08.859,40714,-1.03,-0.57,-0.25,12.01,4023
15:36:08.859,40724,-1.02,-0.59,-0.24,12.03,4024
15:36:08.861,40734,-1.04,-0.64,-0.22,12.39,4025
15:36:08.901,40744,-1.03,-0.66,-0.18,12.31,4026
15:36:08.901,40754,-1.04,-0.66,0.00,12.27,4027
15:36:08.901,40764,-0.88,-0.61,-0.29,11.05,4028
15:36:08.904,40774,-0.92,-0.65,-0.03,11.26,4029
15:36:08.939,40784,-0.89,-0.61,0.03,10.85,4030
15:36:08.940,40794,-0.86,-0.62,0.04,10.62,4031
15:36:08.940,40804,-0.85,-0.78,-0.07,11.56,4032
15:36:08.945,40814,-0.79,-0.93,-0.11,12.26,4033
15:36:08.948,40824,-0.72,-0.97,-0.09,12.10,4034
15:36:08.958,40834,-0.72,-0.91,-0.12,11.66,4035
15:36:08.967,40844,-0.76,-0.82,-0.15,11.28,4036
15:36:08.984,40854,-0.78,-0.78,-0.20,11.26,4037
15:36:08.987,40864,-0.93,-0.70,-0.23,11.88,4038
15:36:08.998,40874,-1.10,-0.56,-0.50,13.32,4039
15:36:09.013,40884,-1.16,-0.39,-0.57,13.53,4040
15:36:09.017,40894,-1.18,-0.10,-0.73,13.88,4041
15:36:09.027,40904,-1.18,0.05,-0.91,14.91,4042
15:36:09.037,40914,-1.11,0.08,-1.04,15.18,4043
15:36:09.052,40924,-1.08,-0.12,-1.14,15.79,4044
15:36:09.058,40934,-1.10,-0.30,-1.07,15.63,4045
15:36:09.076,40944,-1.04,-0.54,-1.20,16.80,4046
15:36:09.077,40954,-0.93,-0.50,-1.28,16.61,4047
15:36:09.088,40964,-0.89,-0.36,-1.10,14.61,4048
15:36:09.105,40974,-0.81,-0.35,-1.20,14.92,4049
15:36:09.107,40984,-0.86,-0.13,-1.01,13.30,4050
15:36:09.120,40994,-0.78,-0.27,-1.06,13.42,4051
15:36:09.129,41004,-0.77,-0.15,-1.07,13.24,4052
15:36:09.139,41014,-0.90,-0.08,-1.13,14.44,4053
15:36:09.155,41024,-0.94,-0.02,-1.23,15.49,4054
15:36:09.157,41034,-0.90,0.02,-1.16,14.68,4055
15:36:09.169,41044,-0.87,0.03,-1.12,14.21,4056
15:36:09.185,41054,-0.97,-0.03,-1.18,15.28,4057
15:36:09.187,41064,-0.94,-0.01,-1.26,15.73,4058
15:36:09.197,41074,-0.84,-0.03,-1.16,14.32,4059
15:36:09.207,41084,-0.75,-0.04,-1.17,13.94,4060
15:36:09.218,41094,-0.71,-0.11,-1.20,13.96,4061
15:36:09.229,41104,-0.69,-0.16,-1.22,14.12,4062
15:36:09.238,41114,-0.66,-0.17,-1.22,13.95,4063
15:36:09.257,41124,-0.67,-0.19,-1.20,13.90,4064
15:36:09.258,41134,-0.70,-0.16,-1.11,13.25,4065
15:36:09.268,41144,-0.75,-0.15,-1.04,12.91,4066
15:36:09.283,41154,-0.80,-0.14,-0.96,12.59,4067
15:36:09.287,41164,-0.84,-0.21,-0.85,12.12,4068
15:36:09.304,41174,-0.84,-0.26,-0.83,12.11,4069
15:36:09.307,41184,-0.81,-0.36,-0.78,11.76,4070
15:36:09.325,41194,-0.78,-0.38,-0.70,11.17,4071
15:36:09.329,41204,-0.74,-0.39,-0.64,10.53,4072
15:36:09.337,41214,-0.75,-0.42,-0.59,10.43,4073
15:36:09.348,41224,-0.81,-0.44,-0.55,10.78,4074
15:36:09.364,41234,-0.82,-0.44,-0.53,10.71,4075
15:36:09.367,41244,-0.79,-0.45,-0.51,10.43,4076
15:36:09.394,41254,-0.74,-0.39,-0.58,10.19,4077
15:36:09.395,41264,-0.74,-0.43,-0.38,9.37,4078
15:36:09.400,41274,-0.82,-0.31,-0.27,9.20,4079
15:36:09.442,41284,-0.99,-0.16,-0.24,10.33,4080
15:36:09.476,41294,-1.13,-0.18,-0.34,11.97,4081
15:36:09.477,41304,-1.19,-0.38,-0.40,13.12,4082
15:36:09.478,41314,-1.18,-0.56,-0.41,13.66,4083
15:36:09.515,41324,-1.05,-0.64,-0.42,13.00,4084
15:36:09.515,41334,-0.87,-0.74,-0.37,12.04,4085
15:36:09.517,41344,-0.76,-0.80,-0.36,11.65,4086
15:36:09.520,41354,-0.70,-0.84,-0.40,11.60,4087
15:36:09.520,41364,-0.69,-0.85,-0.44,11.78,4088
15:36:09.520,41374,-0.74,-0.80,-0.48,11.90,4089
15:36:09.520,41384,-0.84,-0.77,-0.50,12.39,4090
15:36:09.520,41394,-0.95,-0.73,-0.51,13.00,4091
15:36:09.557,41404,-0.97,-0.61,-0.41,12.22,4092
15:36:09.559,41414,-0.95,-0.56,-0.35,11.54,4093
15:36:09.562,41424,-0.91,-0.55,-0.34,11.16,4094
15:36:09.562,41434,-0.91,-0.58,-0.34,11.37,4095
15:36:09.597,41444,-0.94,-0.61,-0.34,11.72,4096
15:36:09.599,41454,-0.96,-0.62,-0.34,11.97,4097
15:36:09.600,41464,-0.96,-0.58,-0.36,11.76,4098
15:36:09.601,41474,-0.90,-0.59,-0.31,11.20,4099
15:36:09.637,41484,-0.86,-0.60,-0.29,10.90,4100
15:36:09.637,41494,-0.85,-0.62,-0.29,10.90,4101
15:36:09.638,41504,-0.84,-0.63,-0.26,10.87,4102
15:36:09.639,41514,-0.86,-0.62,-0.25,10.89,4103
15:36:09.648,41524,-0.89,-0.59,-0.26,11.02,4104
15:36:09.659,41534,-0.91,-0.58,-0.27,11.14,4105
15:36:09.668,41544,-0.90,-0.58,-0.28,11.12,4106
15:36:09.681,41554,-0.89,-0.59,-0.31,11.08,4107
15:36:09.692,41564,-0.89,-0.59,-0.33,11.21,4108
15:36:09.701,41574,-0.89,-0.59,-0.34,11.25,4109
15:36:09.711,41584,-0.90,-0.59,-0.35,11.37,4110
15:36:09.721,41594,-0.90,-0.61,-0.35,11.44,4111
15:36:09.727,41604,-0.90,-0.61,-0.35,11.42,4112
15:36:09.737,41614,-0.91,-0.59,-0.35,11.41,4113
15:36:09.747,41624,-0.91,-0.59,-0.37,11.46,4114
15:36:09.757,41634,-0.92,-0.58,-0.36,11.47,4115
15:36:09.776,41644,-0.91,-0.58,-0.36,11.39,4116
15:36:09.777,41654,-0.92,-0.57,-0.37,11.40,4117
15:36:09.790,41664,-0.91,-0.56,-0.38,11.34,4118
15:36:09.803,41674,-0.91,-0.57,-0.37,11.36,4119
15:36:09.810,41684,-0.91,-0.57,-0.38,11.42,4120
15:36:09.818,41694,-0.93,-0.57,-0.38,11.53,4121
15:36:09.836,41704,-0.93,-0.57,-0.38,11.50,4122
15:36:09.838,41714,-0.93,-0.58,-0.38,11.66,4123
15:36:09.849,41724,-0.91,-0.59,-0.39,11.57,4124
15:36:09.859,41734,-0.88,-0.61,-0.38,11.38,4125
15:36:09.867,41744,-0.89,-0.60,-0.36,11.31,4126
15:36:09.907,41754,-0.89,-0.60,-0.35,11.27,4127
15:36:09.907,41764,-0.90,-0.58,-0.35,11.31,4128
15:36:09.908,41774,-0.90,-0.59,-0.33,11.28,4129
15:36:09.909,41784,-0.90,-0.58,-0.34,11.24,4130
15:36:09.940,41794,-0.90,-0.58,-0.32,11.17,4131
15:36:09.941,41804,-0.91,-0.58,-0.33,11.24,4132
15:36:09.942,41814,-0.91,-0.58,-0.33,11.25,4133
15:36:09.951,41824,-0.91,-0.57,-0.33,11.22,4134
15:36:09.958,41834,-0.90,-0.58,-0.33,11.19,4135
15:36:09.968,41844,-0.90,-0.58,-0.34,11.26,4136
15:36:09.977,41854,-0.91,-0.58,-0.35,11.34,4137
15:36:09.988,41864,-0.90,-0.59,-0.35,11.30,4138
15:36:09.997,41874,-0.90,-0.59,-0.35,11.30,4139
15:36:10.014,41884,-0.90,-0.58,-0.35,11.29,4140
15:36:10.021,41894,-0.91,-0.58,-0.35,11.31,4141
15:36:10.027,41904,-0.91,-0.57,-0.35,11.28,4142
15:36:10.038,41914,-0.91,-0.57,-0.34,11.27,4143
15:36:10.049,41924,-0.91,-0.57,-0.35,11.28,4144
15:36:10.063,41934,-0.91,-0.58,-0.37,11.35,4145
15:36:10.067,41944,-0.91,-0.58,-0.37,11.42,4146
15:36:10.084,41954,-0.91,-0.57,-0.37,11.35,4147
15:36:10.088,41964,-0.92,-0.57,-0.37,11.45,4148
15:36:10.103,41974,-0.92,-0.58,-0.37,11.45,4149
15:36:10.107,41984,-0.91,-0.58,-0.39,11.46,4150
15:36:10.122,41994,-0.90,-0.58,-0.36,11.30,4151
15:36:10.127,42004,-0.89,-0.59,-0.35,11.26,4152
15:36:10.145,42014,-0.89,-0.59,-0.34,11.24,4153
15:36:10.147,42024,-0.90,-0.58,-0.33,11.27,4154
15:36:10.186,42034,-0.91,-0.58,-0.33,11.31,4155
15:36:10.187,42044,-0.92,-0.58,-0.33,11.33,4156
15:36:10.188,42054,-0.90,-0.59,-0.34,11.32,4157
15:36:10.189,42064,-0.90,-0.59,-0.34,11.31,4158
15:36:10.227,42074,-0.89,-0.58,-0.34,11.20,4159
15:36:10.228,42084,-0.90,-0.58,-0.34,11.28,4160
15:36:10.229,42094,-0.90,-0.58,-0.34,11.23,4161
15:36:10.230,42104,-0.91,-0.58,-0.35,11.32,4162
15:36:10.268,42114,-0.91,-0.58,-0.35,11.33,4163
15:36:10.269,42124,-0.91,-0.56,-0.35,11.26,4164
15:36:10.269,42134,-0.92,-0.56,-0.37,11.39,4165
15:36:10.271,42144,-0.92,-0.57,-0.37,11.43,4166
