timestamp,time,ax,ay,az,mag,time2
16:34:24.130,9295,-0.91,-0.54,-0.03,10.56,881
16:34:24.131,9305,-0.91,-0.53,-0.04,10.56,882
16:34:24.147,9315,-0.90,-0.54,-0.04,10.53,883
16:34:24.152,9325,-0.91,-0.54,-0.03,10.59,884
16:34:24.163,9335,-0.91,-0.54,-0.04,10.56,885
16:34:24.173,9345,-0.91,-0.54,-0.03,10.60,886
16:34:24.185,9355,-0.91,-0.54,-0.03,10.59,887
16:34:24.193,9365,-0.91,-0.54,-0.04,10.63,888
16:34:24.200,9375,-0.90,-0.54,-0.03,10.54,889
16:34:24.210,9385,-0.91,-0.55,-0.03,10.60,890
16:34:24.221,9395,-0.91,-0.54,-0.03,10.56,891
16:34:24.230,9405,-0.91,-0.54,-0.03,10.56,892
16:34:24.242,9415,-0.91,-0.54,-0.03,10.58,893
16:34:24.250,9425,-0.91,-0.54,-0.03,10.62,894
16:34:24.261,9435,-0.91,-0.54,-0.04,10.62,895
16:34:24.271,9445,-0.91,-0.55,-0.02,10.57,896
16:34:24.282,9455,-0.91,-0.55,-0.03,10.58,897
16:34:24.292,9465,-0.91,-0.55,-0.03,10.60,898
16:34:24.346,9475,-0.90,-0.54,-0.02,10.50,899
16:34:24.347,9485,-0.90,-0.55,-0.03,10.55,900
16:34:24.347,9495,-0.90,-0.55,-0.03,10.56,901
16:34:24.349,9505,-0.90,-0.55,-0.04,10.54,902
16:34:24.351,9515,-0.90,-0.54,-0.02,10.44,903
16:34:24.383,9525,-0.90,-0.54,-0.02,10.51,904
16:34:24.383,9535,-0.91,-0.54,-0.03,10.62,905
16:34:24.387,9545,-0.91,-0.55,-0.04,10.60,906
16:34:24.388,9555,-0.90,-0.56,-0.03,10.62,907
16:34:24.426,9565,-0.90,-0.53,-0.03,10.51,908
16:34:24.426,9575,-0.92,-0.52,-0.03,10.56,909
16:34:24.431,9585,-0.92,-0.51,-0.01,10.56,910
16:34:24.466,9595,-0.93,-0.52,-0.02,10.67,911
16:34:24.466,9605,-0.91,-0.53,-0.03,10.50,912
16:34:24.534,9615,-0.91,-0.55,-0.03,10.60,913
16:34:24.549,9625,-0.90,-0.56,-0.04,10.57,914
16:34:24.550,9635,-0.89,-0.54,-0.04,10.43,915
16:34:24.618,9645,-0.91,-0.51,-0.03,10.47,916
16:34:24.620,9655,-0.91,-0.53,-0.05,10.51,917
16:34:24.665,9665,-0.91,-0.56,-0.05,10.68,918
16:34:24.668,9675,-0.89,-0.60,-0.06,10.77,919
16:34:24.668,9685,-0.87,-0.62,-0.08,10.71,920
16:34:24.668,9695,-0.87,-0.60,-0.07,10.64,921
16:34:24.668,9705,-0.88,-0.59,-0.07,10.65,922
16:34:24.668,9715,-0.90,-0.58,-0.06,10.73,923
16:34:24.668,9725,-0.91,-0.56,-0.06,10.73,924
16:34:24.692,9735,-0.91,-0.55,-0.05,10.66,925
16:34:24.696,9745,-0.90,-0.55,-0.06,10.58,926
16:34:24.698,9755,-0.90,-0.54,-0.06,10.54,927
16:34:24.699,9765,-0.91,-0.55,-0.04,10.64,928
16:34:24.700,9775,-0.91,-0.54,-0.05,10.60,929
16:34:24.704,9785,-0.91,-0.53,-0.04,10.59,930
16:34:24.704,9795,-0.91,-0.54,-0.05,10.60,931
16:34:24.704,9805,-0.91,-0.54,-0.05,10.64,932
16:34:24.704,9815,-0.90,-0.55,-0.06,10.54,933
16:34:24.704,9825,-0.91,-0.55,-0.05,10.67,934
16:34:24.704,9835,-0.91,-0.55,-0.05,10.63,935
16:34:24.704,9845,-0.91,-0.55,-0.04,10.66,936
16:34:24.704,9855,-0.92,-0.55,-0.04,10.68,937
16:34:24.705,9865,-0.91,-0.54,-0.04,10.57,938
16:34:24.706,9875,-0.91,-0.54,-0.04,10.62,939
16:34:24.710,9885,-0.91,-0.54,-0.04,10.56,940
16:34:24.743,9895,-0.91,-0.54,-0.04,10.58,941
16:34:24.762,9905,-0.91,-0.53,-0.03,10.55,942
16:34:24.785,9915,-0.92,-0.53,-0.03,10.59,943
16:34:24.787,9925,-0.92,-0.51,-0.03,10.49,944
16:34:24.788,9935,-0.93,-0.50,-0.04,10.56,945
16:34:24.790,9945,-0.92,-0.51,-0.04,10.53,946
16:34:24.791,9955,-0.92,-0.51,-0.05,10.59,947
16:34:24.792,9965,-0.92,-0.50,-0.05,10.49,948
16:34:24.805,9975,-0.93,-0.49,-0.05,10.56,949
16:34:24.811,9985,-0.93,-0.50,-0.06,10.63,950
16:34:24.824,9995,-0.92,-0.52,-0.07,10.63,951
16:34:24.830,10005,-0.92,-0.54,-0.09,10.70,952
16:34:24.847,10015,-0.91,-0.53,-0.09,10.56,953
16:34:24.852,10025,-0.93,-0.50,-0.07,10.57,954
16:34:24.870,10035,-0.94,-0.49,-0.08,10.68,955
16:34:24.871,10045,-0.95,-0.50,-0.07,10.79,956
16:34:24.885,10055,-0.94,-0.51,-0.09,10.77,957
16:34:24.890,10065,-0.94,-0.52,-0.10,10.79,958
16:34:24.909,10075,-0.93,-0.51,-0.12,10.66,959
16:34:24.911,10085,-0.93,-0.50,-0.15,10.67,960
16:34:24.921,10095,-0.94,-0.50,-0.17,10.76,961
16:34:24.932,10105,-0.96,-0.50,-0.20,10.97,962
16:34:24.940,10115,-0.96,-0.49,-0.20,11.00,963
16:34:24.951,10125,-0.98,-0.48,-0.22,11.09,964
16:34:24.962,10135,-1.00,-0.46,-0.24,11.32,965
16:34:24.981,10145,-1.03,-0.44,-0.25,11.46,966
16:34:24.990,10155,-1.05,-0.43,-0.27,11.66,967
16:34:24.993,10165,-1.06,-0.45,-0.26,11.77,968
16:34:25.001,10175,-1.03,-0.47,-0.27,11.69,969
16:34:25.036,10185,-1.00,-0.53,-0.24,11.51,970
16:34:25.036,10195,-0.97,-0.56,-0.19,11.34,971
16:34:25.039,10205,-0.95,-0.59,-0.10,11.23,972
16:34:25.089,10215,-0.92,-0.61,-0.06,11.08,973
16:34:25.093,10225,-0.95,-0.61,-0.01,11.28,974
16:34:25.169,10235,-1.04,-0.61,0.00,12.02,975
16:34:25.171,10245,-1.08,-0.58,0.02,12.25,976
16:34:25.173,10255,-1.05,-0.57,0.11,11.99,977
16:34:25.207,10265,-1.00,-0.52,0.16,11.36,978
16:34:25.241,10275,-0.96,-0.46,0.16,10.80,979
16:34:25.242,10285,-0.93,-0.45,0.19,10.44,980
16:34:25.243,10295,-0.89,-0.49,0.22,10.46,981
16:34:25.244,10305,-0.85,-0.55,0.19,10.34,982
16:34:25.250,10315,-0.82,-0.59,0.15,10.22,983
16:34:25.251,10325,-0.80,-0.62,0.13,10.18,984
16:34:25.257,10335,-0.79,-0.64,0.14,10.25,985
16:34:25.257,10345,-0.79,-0.65,0.14,10.32,986
16:34:25.257,10355,-0.78,-0.65,0.14,10.25,987
16:34:25.257,10365,-0.79,-0.63,0.14,10.16,988
16:34:25.257,10375,-0.79,-0.61,0.12,10.06,989
16:34:25.257,10385,-0.82,-0.60,0.12,10.25,990
16:34:25.257,10395,-0.84,-0.59,0.12,10.32,991
16:34:25.257,10405,-0.87,-0.56,0.09,10.37,992
16:34:25.257,10415,-0.89,-0.53,0.07,10.36,993
16:34:25.257,10425,-0.90,-0.50,0.05,10.36,994
16:34:25.262,10435,-0.91,-0.50,0.06,10.36,995
16:34:25.270,10445,-0.93,-0.50,0.04,10.57,996
16:34:25.301,10455,-0.93,-0.50,0.04,10.61,997
16:34:25.303,10465,-0.91,-0.50,0.01,10.37,998
16:34:25.307,10475,-0.89,-0.50,0.04,10.26,999
16:34:25.310,10485,-0.92,-0.49,0.01,10.41,1000
16:34:25.321,10495,-0.94,-0.47,-0.00,10.52,1001
16:34:25.331,10505,-0.96,-0.43,-0.01,10.56,1002
16:34:25.344,10515,-0.99,-0.37,-0.03,10.56,1003
16:34:25.350,10525,-1.00,-0.31,-0.06,10.52,1004
16:34:25.362,10535,-1.00,-0.31,-0.07,10.52,1005
16:34:25.377,10545,-1.01,-0.29,-0.13,10.58,1006
16:34:25.382,10555,-0.98,-0.31,-0.12,10.33,1007
16:34:25.393,10565,-0.96,-0.34,-0.13,10.24,1008
16:34:25.401,10575,-0.89,-0.31,-0.12,9.48,1009
16:34:25.410,10585,-0.95,-0.33,-0.27,10.40,1010
16:34:25.430,10595,-0.95,-0.30,-0.25,10.26,1011
16:34:25.431,10605,-0.94,-0.26,-0.26,10.13,1012
16:34:25.441,10615,-0.96,-0.25,-0.28,10.30,1013
16:34:25.450,10625,-0.95,-0.22,-0.31,10.22,1014
16:34:25.464,10635,-0.95,-0.20,-0.32,10.21,1015
16:34:25.475,10645,-0.93,-0.21,-0.31,10.00,1016
16:34:25.481,10655,-0.90,-0.24,-0.32,9.85,1017
16:34:25.499,10665,-0.85,-0.28,-0.31,9.50,1018
16:34:25.505,10675,-0.82,-0.32,-0.29,9.26,1019
16:34:25.510,10685,-0.81,-0.35,-0.27,9.22,1020
16:34:25.524,10695,-0.75,-0.42,-0.24,8.92,1021
16:34:25.534,10705,-0.80,-0.50,-0.26,9.80,1022
16:34:25.541,10715,-0.66,-0.53,-0.32,9.05,1023
16:34:25.550,10725,-0.72,-0.59,-0.29,9.67,1024
16:34:25.563,10735,-1.04,-0.62,-0.16,12.20,1025
16:34:25.574,10745,-1.36,-0.56,-0.12,14.80,1026
16:34:25.583,10755,-1.46,-0.38,-0.15,15.12,1027
16:34:25.591,10765,-1.29,-0.23,-0.33,13.48,1028
16:34:25.602,10775,-1.20,-0.29,-0.43,13.08,1029
16:34:25.611,10785,-1.14,-0.44,-0.38,12.82,1030
16:34:25.628,10795,-1.18,-0.51,-0.27,13.18,1031
16:34:25.630,10805,-1.09,-0.53,-0.19,12.30,1032
16:34:25.643,10815,-1.00,-0.54,-0.07,11.38,1033
16:34:25.653,10825,-0.89,-0.56,0.06,10.54,1034
16:34:25.662,10835,-0.80,-0.58,0.16,10.00,1035
16:34:25.672,10845,-0.74,-0.59,0.28,9.86,1036
16:34:25.714,10855,-0.75,-0.56,0.32,9.90,1037
16:34:25.714,10865,-0.75,-0.52,0.31,9.63,1038
16:34:25.716,10875,-0.75,-0.61,0.31,10.21,1039
16:34:25.716,10885,-0.76,-0.77,0.30,11.24,1040
16:34:25.754,10895,-0.81,-0.76,0.27,11.42,1041
16:34:25.755,10905,-0.79,-0.69,0.20,10.64,1042
16:34:25.757,10915,-0.77,-0.61,0.15,9.98,1043
16:34:25.758,10925,-0.82,-0.59,0.18,10.23,1044
16:34:25.762,10935,-0.85,-0.55,0.14,10.24,1045
16:34:25.801,10945,-0.90,-0.55,0.10,10.60,1046
16:34:25.882,10955,-0.88,-0.60,0.08,10.67,1047
16:34:25.883,10965,-0.86,-0.60,0.06,10.49,1048
16:34:25.957,10975,-0.84,-0.63,0.04,10.49,1049
16:34:25.958,10985,-0.81,-0.67,0.04,10.55,1050
16:34:25.959,10995,-0.80,-0.70,0.02,10.59,1051
16:34:25.974,11005,-0.77,-0.72,-0.03,10.59,1052
16:34:25.989,11015,-0.75,-0.75,-0.03,10.62,1053
16:34:25.993,11025,-0.76,-0.74,-0.03,10.63,1054
16:34:25.993,11035,-0.79,-0.71,-0.03,10.63,1055
16:34:25.993,11045,-0.82,-0.68,0.00,10.60,1056
16:34:25.993,11055,-0.81,-0.67,0.04,10.52,1057
16:34:25.993,11065,-0.81,-0.66,0.04,10.44,1058
16:34:25.993,11075,-0.80,-0.66,0.02,10.33,1059
16:34:25.993,11085,-0.77,-0.68,0.03,10.26,1060
16:34:26.016,11095,-0.78,-0.70,0.03,10.46,1061
16:34:26.016,11105,-0.79,-0.66,0.04,10.29,1062
16:34:26.019,11115,-0.79,-0.65,0.06,10.23,1063
16:34:26.021,11125,-0.79,-0.63,0.09,10.10,1064
16:34:26.022,11135,-0.79,-0.64,0.09,10.20,1065
16:34:26.028,11145,-0.77,-0.67,0.05,10.26,1066
16:34:26.028,11155,-0.73,-0.71,-0.02,10.23,1067
16:34:26.028,11165,-0.74,-0.72,-0.02,10.29,1068
16:34:26.028,11175,-0.73,-0.70,0.01,10.15,1069
16:34:26.028,11185,-0.74,-0.69,-0.00,10.15,1070
16:34:26.028,11195,-0.77,-0.67,-0.03,10.24,1071
16:34:26.032,11205,-0.79,-0.67,-0.00,10.40,1072
16:34:26.040,11215,-0.81,-0.67,-0.00,10.51,1073
16:34:26.059,11225,-0.78,-0.66,-0.01,10.25,1074
16:34:26.062,11235,-0.75,-0.67,-0.03,10.10,1075
16:34:26.072,11245,-0.76,-0.67,-0.05,10.13,1076
16:34:26.087,11255,-0.79,-0.66,-0.07,10.29,1077
16:34:26.091,11265,-0.78,-0.68,-0.08,10.39,1078
16:34:26.102,11275,-0.75,-0.70,-0.09,10.30,1079
16:34:26.124,11285,-0.77,-0.66,-0.07,10.15,1080
16:34:26.128,11295,-0.80,-0.59,-0.02,9.96,1081
16:34:26.141,11305,-0.88,-0.51,0.00,10.16,1082
16:34:26.148,11315,-0.95,-0.45,0.09,10.54,1083
16:34:26.153,11325,-0.94,-0.47,0.12,10.58,1084
16:34:26.161,11335,-0.84,-0.63,0.08,10.49,1085
16:34:26.178,11345,-0.83,-0.65,0.10,10.61,1086
16:34:26.181,11355,-0.75,-0.63,0.12,9.91,1087
16:34:26.198,11365,-0.75,-0.64,0.11,9.92,1088
16:34:26.202,11375,-0.75,-0.64,0.03,9.83,1089
16:34:26.211,11385,-0.73,-0.72,-0.01,10.27,1090
16:34:26.220,11395,-0.73,-0.64,0.02,9.73,1091
16:34:26.232,11405,-0.74,-0.67,0.03,9.96,1092
16:34:26.278,11415,-0.75,-0.67,0.03,10.05,1093
16:34:26.283,11425,-0.76,-0.64,0.04,9.94,1094
16:34:26.293,11435,-0.80,-0.62,0.04,10.07,1095
16:34:26.293,11445,-0.79,-0.64,0.03,10.19,1096
16:34:26.297,11455,-0.77,-0.67,0.02,10.24,1097
16:34:26.310,11465,-0.77,-0.67,0.00,10.22,1098
16:34:26.317,11475,-0.81,-0.65,0.05,10.40,1099
16:34:26.392,11485,-0.90,-0.65,0.11,11.12,1100
16:34:26.408,11495,-0.92,-0.62,0.15,11.24,1101
16:34:26.458,11505,-0.96,-0.60,0.14,11.42,1102
16:34:26.460,11515,-0.93,-0.57,0.12,10.95,1103
16:34:26.461,11525,-0.89,-0.54,0.07,10.42,1104
16:34:26.463,11535,-0.91,-0.52,0.01,10.53,1105
16:34:26.463,11545,-0.96,-0.50,-0.07,10.86,1106
16:34:26.463,11555,-1.00,-0.47,-0.14,11.12,1107
16:34:26.464,11565,-1.04,-0.54,-0.17,11.81,1108
16:34:26.464,11575,-1.14,-0.74,-0.20,13.73,1109
16:34:26.478,11585,-1.32,-0.74,-0.25,15.38,1110
16:34:26.481,11595,-1.43,-0.54,-0.36,15.71,1111
16:34:26.481,11605,-1.51,-0.39,-0.38,16.07,1112
16:34:26.481,11615,-1.52,-0.44,-0.39,16.35,1113
16:34:26.481,11625,-1.53,-0.57,-0.24,16.53,1114
16:34:26.481,11635,-1.51,-0.74,-0.11,16.84,1115
16:34:26.481,11645,-1.29,-0.86,0.01,15.51,1116
16:34:26.488,11655,-0.98,-1.05,0.05,14.40,1117
16:34:26.493,11665,-0.71,-1.20,0.11,14.01,1118
16:34:26.547,11675,-0.58,-1.33,0.35,14.88,1119
16:34:26.547,11685,-0.50,-1.35,0.74,16.21,1120
16:34:26.548,11695,-0.50,-1.32,0.90,16.71,1121
16:34:26.550,11705,-0.48,-1.05,0.89,14.58,1122
16:34:26.551,11715,-0.48,-0.87,1.01,14.21,1123
16:34:26.587,11725,-0.38,-0.82,1.12,14.39,1124
16:34:26.592,11735,-0.17,-0.72,1.20,14.07,1125
16:34:26.592,11745,-0.15,-0.63,1.06,12.47,1126
16:34:26.628,11755,-0.24,-0.54,0.76,9.64,1127
16:34:26.629,11765,-0.40,-0.59,0.53,8.86,1128
16:34:26.630,11775,-0.41,-0.72,0.48,9.53,1129
16:34:26.631,11785,-0.27,-0.80,0.54,10.00,1130
16:34:26.635,11795,-0.15,-0.86,0.54,10.30,1131
16:34:26.661,11805,-0.01,-0.85,0.60,10.42,1132
16:34:26.665,11815,0.08,-0.75,0.61,9.69,1133
16:34:26.667,11825,0.04,-0.66,0.57,8.72,1134
16:34:26.667,11835,-0.08,-0.42,0.66,7.84,1135
16:34:26.696,11845,-0.15,-0.39,0.66,7.86,1136
16:34:26.696,11855,-0.18,-0.34,0.68,7.84,1137
16:34:26.698,11865,-0.15,-0.29,0.70,7.79,1138
16:34:26.700,11875,-0.13,-0.29,0.71,7.76,1139
16:34:26.735,11885,-0.14,-0.30,0.65,7.35,1140
16:34:26.738,11895,-0.13,-0.34,0.68,7.73,1141
16:34:26.738,11905,-0.21,-0.38,0.61,7.49,1142
16:34:26.746,11915,-0.29,-0.43,0.59,7.88,1143
16:34:26.756,11925,-0.32,-0.47,0.63,8.53,1144
16:34:26.762,11935,-0.30,-0.57,0.67,9.30,1145
16:34:26.772,11945,-0.21,-0.64,0.63,9.26,1146
16:34:26.781,11955,-0.12,-0.69,0.57,9.00,1147
16:34:26.810,11965,-0.18,-0.67,0.46,8.36,1148
16:34:26.810,11975,-0.30,-0.64,0.40,8.15,1149
16:34:26.814,11985,-0.43,-0.71,0.48,9.58,1150
16:34:26.823,11995,-0.58,-0.72,0.53,10.68,1151
16:34:26.832,12005,-0.67,-0.64,0.52,10.64,1152
16:34:26.841,12015,-0.71,-0.60,0.51,10.55,1153
16:34:26.851,12025,-0.84,-0.52,0.34,10.47,1154
16:34:26.861,12035,-0.89,-0.54,0.24,10.65,1155
16:34:26.870,12045,-0.85,-0.56,0.29,10.55,1156
16:34:26.881,12055,-0.76,-0.58,0.33,10.15,1157
16:34:26.893,12065,-0.69,-0.40,0.03,8.00,1158
16:34:26.901,12075,-0.71,-0.06,-0.32,7.79,1159
16:34:26.910,12085,-0.97,0.17,-0.58,11.42,1160
16:34:26.921,12095,-0.89,0.27,-0.82,12.43,1161
16:34:26.936,12105,-0.87,0.27,-1.15,14.69,1162
16:34:26.941,12115,-0.76,0.09,-1.15,13.83,1163
16:34:26.951,12125,-0.65,-0.20,-0.86,10.91,1164
16:34:26.962,12135,-0.62,-0.36,-0.44,8.36,1165
16:34:26.971,12145,-0.44,-0.69,-0.17,8.42,1166
16:34:26.982,12155,-0.22,-0.80,0.02,8.28,1167
16:34:26.992,12165,-0.34,-0.99,-0.07,10.47,1168
16:34:27.008,12175,-0.91,-0.97,0.06,13.32,1169
16:34:27.010,12185,-1.60,-0.85,0.21,18.22,1170
16:34:27.027,12195,-1.96,-0.51,0.33,20.53,1171
16:34:27.031,12205,-2.01,0.06,0.17,20.14,1172
16:34:27.044,12215,-1.74,0.31,-0.06,17.68,1173
16:34:27.056,12225,-1.39,0.20,-0.06,14.03,1174
16:34:27.063,12235,-0.63,-0.70,0.11,9.49,1175
16:34:27.073,12245,-0.46,-0.73,0.13,8.69,1176
16:34:27.084,12255,-0.36,-1.00,0.00,10.63,1177
16:34:27.091,12265,-0.27,-1.09,0.35,11.72,1178
16:34:27.103,12275,-0.47,-1.04,0.45,12.27,1179
16:34:27.113,12285,-0.64,-0.71,0.45,10.53,1180
16:34:27.121,12295,-0.75,-0.45,0.56,10.43,1181
16:34:27.130,12305,-0.86,-0.37,0.63,11.26,1182
16:34:27.141,12315,-1.13,-0.28,0.59,13.02,1183
16:34:27.150,12325,-1.07,-0.31,0.39,11.80,1184
16:34:27.165,12335,-0.77,-0.68,0.28,10.69,1185
16:34:27.170,12345,-0.60,-0.97,0.10,11.49,1186
16:34:27.185,12355,-0.42,-1.13,0.01,12.05,1187
16:34:27.282,12365,-0.28,-1.23,0.00,12.59,1188
16:34:27.283,12375,-0.28,-1.17,-0.02,12.01,1189
16:34:27.327,12385,-0.47,-0.93,0.09,10.45,1190
16:34:27.327,12395,-0.63,-0.86,0.18,10.79,1191
16:34:27.328,12405,-0.81,-0.74,0.21,11.17,1192
16:34:27.367,12415,-0.93,-0.59,0.27,11.35,1193
16:34:27.370,12425,-1.00,-0.46,0.29,11.37,1194
16:34:27.370,12435,-0.98,-0.38,0.32,10.99,1195
16:34:27.370,12445,-0.85,-0.55,0.27,10.46,1196
16:34:27.370,12455,-0.74,-0.70,0.21,10.43,1197
16:34:27.370,12465,-0.66,-0.81,0.13,10.51,1198
16:34:27.370,12475,-0.61,-0.86,0.08,10.59,1199
16:34:27.370,12485,-0.57,-0.89,0.04,10.59,1200
16:34:27.370,12495,-0.62,-0.81,0.03,10.23,1201
16:34:27.451,12505,-0.70,-0.73,0.07,10.15,1202
16:34:27.455,12515,-0.77,-0.65,0.07,10.12,1203
16:34:27.455,12525,-0.82,-0.59,0.08,10.14,1204
16:34:27.465,12535,-0.84,-0.57,0.11,10.20,1205
16:34:27.466,12545,-0.80,-0.62,0.09,10.17,1206
16:34:27.480,12555,-0.75,-0.68,0.03,10.14,1207
16:34:27.480,12565,-0.70,-0.76,-0.01,10.27,1208
16:34:27.480,12575,-0.66,-0.79,-0.02,10.29,1209
16:34:27.480,12585,-0.68,-0.76,-0.05,10.19,1210
16:34:27.481,12595,-0.72,-0.70,-0.07,10.05,1211
16:34:27.484,12605,-0.74,-0.69,-0.09,10.17,1212
16:34:27.484,12615,-0.75,-0.68,-0.08,10.16,1213
16:34:27.487,12625,-0.76,-0.65,-0.06,10.07,1214
16:34:27.489,12635,-0.81,-0.60,-0.02,10.02,1215
16:34:27.492,12645,-0.93,-0.43,0.03,10.26,1216
16:34:27.492,12655,-1.10,-0.29,0.03,11.41,1217
16:34:27.493,12665,-1.17,-0.24,0.03,11.91,1218
16:34:27.523,12675,-1.03,-0.38,-0.02,11.02,1219
16:34:27.524,12685,-0.86,-0.58,-0.10,10.42,1220
16:34:27.526,12695,-0.73,-0.73,-0.12,10.35,1221
16:34:27.531,12705,-0.69,-0.82,-0.05,10.74,1222
16:34:27.547,12715,-0.75,-0.74,0.03,10.50,1223
16:34:27.550,12725,-0.72,-0.67,0.11,9.91,1224
16:34:27.562,12735,-0.74,-0.69,0.11,10.16,1225
16:34:27.572,12745,-0.72,-0.70,0.11,10.14,1226
16:34:27.582,12755,-0.74,-0.69,0.10,10.18,1227
16:34:27.595,12765,-0.84,-0.63,0.13,10.54,1228
16:34:27.601,12775,-0.91,-0.56,0.15,10.75,1229
16:34:27.618,12785,-0.79,-0.66,0.11,10.35,1230
16:34:27.621,12795,-0.74,-0.70,0.03,10.20,1231
16:34:27.631,12805,-0.80,-0.67,-0.01,10.49,1232
16:34:27.645,12815,-0.92,-0.60,0.02,10.99,1233
16:34:27.652,12825,-1.03,-0.54,0.04,11.65,1234
16:34:27.668,12835,-1.10,-0.67,-0.04,12.83,1235
16:34:27.671,12845,-1.15,-0.87,-0.01,14.45,1236
16:34:27.680,12855,-1.36,-0.69,-0.04,15.23,1237
16:34:27.698,12865,-1.35,-0.48,-0.03,14.30,1238
16:34:27.703,12875,-1.43,-0.37,-0.25,14.96,1239
16:34:27.713,12885,-1.48,-0.44,-0.39,15.92,1240
16:34:27.723,12895,-1.49,-0.48,-0.33,15.94,1241
16:34:27.773,12905,-1.51,-0.58,-0.15,16.19,1242
16:34:27.782,12915,-1.41,-0.72,-0.17,15.92,1243
16:34:27.802,12925,-1.15,-0.90,-0.10,14.64,1244
16:34:27.841,12935,-0.91,-1.04,0.13,13.86,1245
16:34:27.848,12945,-0.75,-1.11,0.21,13.56,1246
16:34:27.851,12955,-0.70,-1.18,0.39,14.27,1247
16:34:27.857,12965,-0.73,-1.13,0.72,15.27,1248
16:34:27.861,12975,-0.70,-1.08,0.95,16.06,1249
16:34:27.866,12985,-0.72,-0.92,0.92,14.87,1250
16:34:27.868,12995,-0.61,-0.84,0.78,13.01,1251
16:34:27.874,13005,-0.38,-0.76,0.96,12.80,1252
16:34:27.877,13015,-0.17,-0.74,1.28,14.90,1253
16:34:27.877,13025,-0.16,-0.66,1.14,13.26,1254
16:34:27.877,13035,-0.41,-0.48,0.73,9.62,1255
16:34:27.878,13045,-0.56,-0.48,0.56,9.22,1256
16:34:27.914,13055,-0.47,-0.63,0.64,10.18,1257
16:34:27.918,13065,-0.43,-0.78,0.64,11.01,1258
16:34:27.920,13075,-0.30,-0.84,0.65,11.05,1259
16:34:27.920,13085,-0.16,-0.80,0.65,10.47,1260
16:34:27.957,13095,-0.02,-0.69,0.59,9.13,1261
16:34:27.957,13105,0.02,-0.59,0.63,8.66,1262
16:34:27.959,13115,-0.08,-0.51,0.70,8.69,1263
16:34:27.960,13125,-0.19,-0.46,0.71,8.62,1264
16:34:27.961,13135,-0.27,-0.42,0.71,8.68,1265
16:34:27.998,13145,-0.23,-0.43,0.75,8.99,1266
16:34:28.001,13155,-0.15,-0.39,0.73,8.40,1267
16:34:28.001,13165,-0.10,-0.39,0.72,8.23,1268
16:34:28.001,13175,-0.04,-0.39,0.70,7.99,1269
16:34:28.038,13185,-0.05,-0.40,0.65,7.62,1270
16:34:28.041,13195,-0.17,-0.37,0.62,7.45,1271
16:34:28.043,13205,-0.27,-0.34,0.68,8.04,1272
16:34:28.044,13215,-0.29,-0.30,0.70,8.14,1273
16:34:28.080,13225,-0.28,-0.31,0.66,7.79,1274
16:34:28.080,13235,-0.25,-0.35,0.62,7.51,1275
16:34:28.084,13245,-0.23,-0.37,0.59,7.33,1276
16:34:28.084,13255,-0.30,-0.47,0.60,8.19,1277
16:34:28.105,13265,-0.37,-0.53,0.62,8.96,1278
16:34:28.107,13275,-0.45,-0.55,0.60,9.31,1279
16:34:28.111,13285,-0.55,-0.59,0.61,10.10,1280
16:34:28.122,13295,-0.64,-0.63,0.62,10.86,1281
16:34:28.130,13305,-0.69,-0.68,0.53,11.06,1282
16:34:28.147,13315,-0.73,-0.63,0.35,10.29,1283
16:34:28.150,13325,-0.78,-0.53,0.27,9.76,1284
16:34:28.169,13335,-0.87,-0.53,0.18,10.37,1285
16:34:28.178,13345,-0.79,-0.52,0.23,9.72,1286
16:34:28.181,13355,-0.68,-0.45,0.01,8.17,1287
16:34:28.190,13365,-0.65,-0.20,-0.58,8.95,1288
16:34:28.200,13375,-0.80,0.35,-1.02,13.45,1289
16:34:28.211,13385,-0.94,0.43,-1.46,17.87,1290
16:34:28.229,13395,-0.92,0.51,-1.56,18.84,1291
16:34:28.236,13405,-0.82,0.26,-0.93,12.66,1292
16:34:28.240,13415,-0.51,-0.39,-0.53,8.32,1293
16:34:28.250,13425,-0.32,-0.77,-0.11,8.44,1294
16:34:28.260,13435,-0.22,-0.95,0.43,10.63,1295
16:34:28.275,13445,-0.36,-1.27,0.16,13.32,1296
16:34:28.281,13455,-0.70,-1.10,0.10,13.09,1297
16:34:28.293,13465,-1.18,-0.80,0.17,14.36,1298
16:34:28.302,13475,-1.70,-0.52,0.14,17.83,1299
16:34:28.313,13485,-1.87,-0.01,0.05,18.72,1300
16:34:28.323,13495,-2.13,0.33,0.14,21.55,1301
16:34:28.331,13505,-2.01,0.39,0.00,20.46,1302
16:34:28.340,13515,-1.20,-0.28,0.08,12.33,1303
16:34:28.350,13525,-0.67,-0.64,0.17,9.41,1304
16:34:28.361,13535,-0.46,-0.93,0.02,10.34,1305
16:34:28.371,13545,-0.39,-0.90,-0.12,9.86,1306
16:34:28.381,13555,-0.54,-0.82,0.03,9.85,1307
16:34:28.390,13565,-0.63,-0.92,0.33,11.66,1308
16:34:28.400,13575,-0.80,-0.94,0.39,12.95,1309
16:34:28.410,13585,-0.81,-0.66,0.52,11.66,1310
16:34:28.427,13595,-0.89,-0.42,0.43,10.75,1311
16:34:28.431,13605,-0.87,-0.24,0.50,10.27,1312
16:34:28.448,13615,-0.94,-0.37,0.33,10.58,1313
16:34:28.453,13625,-0.78,-0.67,0.22,10.50,1314
16:34:28.467,13635,-0.68,-0.94,0.11,11.65,1315
16:34:28.474,13645,-0.55,-1.13,0.01,12.60,1316
16:34:28.502,13655,-0.34,-1.16,-0.07,12.16,1317
16:34:28.503,13665,-0.23,-1.17,-0.13,11.98,1318
16:34:28.505,13675,-0.31,-1.12,-0.04,11.64,1319
16:34:28.517,13685,-0.51,-0.92,0.16,10.62,1320
16:34:28.523,13695,-0.69,-0.81,0.23,10.86,1321
16:34:28.532,13705,-0.87,-0.67,0.28,11.40,1322
16:34:28.544,13715,-1.00,-0.55,0.31,11.85,1323
16:34:28.557,13725,-1.10,-0.40,0.33,12.16,1324
16:34:28.582,13735,-1.07,-0.27,0.34,11.53,1325
16:34:28.586,13745,-0.89,-0.35,0.31,10.09,1326
16:34:28.604,13755,-0.78,-0.56,0.20,9.81,1327
16:34:28.605,13765,-0.68,-0.75,0.09,10.16,1328
16:34:28.606,13775,-0.63,-0.87,0.04,10.74,1329
16:34:28.670,13785,-0.58,-0.94,-0.00,11.00,1330
16:34:28.670,13795,-0.58,-0.89,-0.01,10.60,1331
16:34:28.707,13805,-0.68,-0.76,0.06,10.21,1332
16:34:28.710,13815,-0.78,-0.65,0.09,10.20,1333
16:34:28.710,13825,-0.84,-0.57,0.11,10.22,1334
16:34:28.750,13835,-0.86,-0.53,0.11,10.15,1335
16:34:28.750,13845,-0.82,-0.59,0.08,10.10,1336
16:34:28.865,13855,-0.79,-0.62,0.03,10.10,1337
16:34:28.869,13865,-0.77,-0.66,0.00,10.18,1338
16:34:28.869,13875,-0.77,-0.68,-0.03,10.25,1339
16:34:28.869,13885,-0.79,-0.65,-0.03,10.27,1340
16:34:28.869,13895,-0.82,-0.60,-0.03,10.17,1341
16:34:28.869,13905,-0.84,-0.58,-0.08,10.27,1342
16:34:28.869,13915,-0.85,-0.55,-0.09,10.17,1343
16:34:28.869,13925,-0.87,-0.57,-0.09,10.41,1344
16:34:28.869,13935,-0.87,-0.58,-0.14,10.57,1345
16:34:28.871,13945,-0.88,-0.61,-0.20,10.86,1346
16:34:28.873,13955,-0.81,-0.66,-0.22,10.65,1347
16:34:28.896,13965,-0.76,-0.67,-0.21,10.32,1348
16:34:28.897,13975,-0.76,-0.64,-0.21,10.14,1349
16:34:28.901,13985,-0.78,-0.64,-0.17,10.20,1350
16:34:28.901,13995,-0.77,-0.68,-0.07,10.25,1351
16:34:28.901,14005,-0.81,-0.64,0.05,10.35,1352
16:34:28.901,14015,-0.88,-0.55,0.11,10.48,1353
16:34:28.901,14025,-0.88,-0.52,0.21,10.49,1354
16:34:28.901,14035,-0.84,-0.56,0.22,10.38,1355
16:34:28.901,14045,-0.74,-0.63,0.10,9.78,1356
16:34:28.901,14055,-0.73,-0.68,0.01,10.00,1357
16:34:28.901,14065,-0.86,-0.65,-0.03,10.80,1358
16:34:28.901,14075,-0.97,-0.59,-0.03,11.33,1359
16:34:28.914,14085,-1.01,-0.60,-0.06,11.72,1360
16:34:28.920,14095,-1.02,-0.54,-0.06,11.59,1361
16:34:28.934,14105,-1.07,-0.48,-0.06,11.77,1362
16:34:28.943,14115,-1.16,-0.39,-0.06,12.27,1363
16:34:28.954,14125,-1.21,-0.39,-0.02,12.66,1364
16:34:28.964,14135,-1.28,-0.61,-0.03,14.21,1365
16:34:28.970,14145,-1.46,-0.75,-0.05,16.40,1366
16:34:28.980,14155,-1.68,-0.60,-0.17,17.91,1367
16:34:28.999,14165,-1.72,-0.42,-0.41,18.19,1368
16:34:29.002,14175,-1.62,-0.40,-0.59,17.68,1369
16:34:29.019,14185,-1.53,-0.60,-0.51,17.22,1370
16:34:29.033,14195,-1.41,-0.93,-0.13,16.90,1371
16:34:29.061,14205,-1.21,-1.19,0.05,17.02,1372
16:34:29.068,14215,-0.88,-1.28,0.15,15.65,1373
16:34:29.079,14225,-0.59,-1.34,0.23,14.78,1374
16:34:29.080,14235,-0.45,-1.41,0.57,15.80,1375
16:34:29.081,14245,-0.38,-1.50,0.88,17.86,1376
16:34:29.089,14255,-0.43,-1.49,0.96,18.24,1377
16:34:29.091,14265,-0.50,-1.30,0.87,16.37,1378
16:34:29.108,14275,-0.46,-0.96,0.94,14.18,1379
16:34:29.114,14285,-0.10,-0.86,1.35,16.03,1380
16:34:29.130,14295,-0.10,-0.68,1.35,15.16,1381
16:34:29.131,14305,-0.29,-0.45,1.03,11.55,1382
16:34:29.145,14315,-0.39,-0.24,0.73,8.65,1383
16:34:29.150,14325,-0.44,-0.31,0.58,7.97,1384
16:34:29.163,14335,-0.45,-0.62,0.53,9.28,1385
16:34:29.172,14345,-0.35,-0.81,0.52,10.23,1386
16:34:29.183,14355,-0.15,-0.82,0.59,10.24,1387
16:34:29.192,14365,0.01,-0.80,0.62,10.08,1388
16:34:29.203,14375,0.10,-0.71,0.60,9.37,1389
16:34:29.213,14385,0.13,-0.57,0.62,8.55,1390
16:34:29.229,14395,0.01,-0.48,0.68,8.31,1391
16:34:29.232,14405,-0.08,-0.40,0.69,8.04,1392
16:34:29.243,14415,-0.18,-0.32,0.68,7.75,1393
16:34:29.255,14425,-0.18,-0.30,0.73,8.13,1394
16:34:29.262,14435,-0.10,-0.30,0.79,8.49,1395
16:34:29.276,14445,-0.03,-0.36,0.80,8.80,1396
16:34:29.280,14455,-0.05,-0.36,0.71,7.99,1397
16:34:29.291,14465,-0.06,-0.33,0.56,6.51,1398
16:34:29.302,14475,-0.16,-0.34,0.51,6.33,1399
16:34:29.310,14485,-0.26,-0.41,0.59,7.64,1400
16:34:29.320,14495,-0.31,-0.48,0.68,8.87,1401
16:34:29.333,14505,-0.31,-0.51,0.62,8.63,1402
16:34:29.344,14515,-0.26,-0.51,0.53,7.76,1403
16:34:29.355,14525,-0.33,-0.64,0.52,8.89,1404
16:34:29.363,14535,-0.50,-0.74,0.52,10.35,1405
16:34:29.370,14545,-0.69,-0.75,0.51,11.42,1406
16:34:29.380,14555,-0.74,-0.67,0.45,11.00,1407
16:34:29.422,14565,-0.74,-0.55,0.26,9.56,1408
16:34:29.423,14575,-0.78,-0.55,0.23,9.82,1409
16:34:29.424,14585,-0.76,-0.56,0.25,9.78,1410
16:34:29.428,14595,-0.72,-0.56,0.30,9.60,1411
16:34:29.463,14605,-0.66,-0.51,0.25,8.67,1412
16:34:29.465,14615,-0.73,-0.25,-0.17,7.90,1413
16:34:29.465,14625,-0.85,0.13,-0.69,11.09,1414
16:34:29.467,14635,-1.02,0.31,-0.88,13.83,1415
16:34:29.496,14645,-1.03,0.27,-0.90,13.93,1416
16:34:29.499,14655,-0.90,0.10,-0.86,12.46,1417
16:34:29.504,14665,-0.69,-0.19,-0.69,9.97,1418
16:34:29.504,14675,-0.47,-0.38,-0.46,7.55,1419
16:34:29.538,14685,-0.33,-0.58,-0.27,7.22,1420
16:34:29.538,14695,-0.29,-0.67,0.08,7.29,1421
16:34:29.542,14705,-0.50,-0.90,-0.04,10.29,1422
16:34:29.544,14715,-0.71,-0.96,0.11,12.04,1423
16:34:29.579,14725,-1.20,-0.92,0.10,15.19,1424
16:34:29.580,14735,-1.66,-0.82,0.06,18.47,1425
16:34:29.584,14745,-1.73,-0.36,-0.08,17.67,1426
16:34:29.584,14755,-1.89,0.13,-0.02,18.96,1427
16:34:29.616,14765,-1.72,0.21,-0.18,17.46,1428
16:34:29.616,14775,-1.48,0.25,0.06,14.98,1429
16:34:29.619,14785,-1.01,-0.18,0.32,10.74,1430
16:34:29.622,14795,-0.68,-0.65,0.17,9.58,1431
16:34:29.631,14805,-0.54,-0.85,0.31,10.58,1432
16:34:29.640,14815,-0.33,-0.99,0.35,10.97,1433
16:34:29.652,14825,-0.28,-1.04,0.29,11.18,1434
16:34:29.662,14835,-0.39,-0.69,0.55,9.62,1435
16:34:29.670,14845,-0.66,-0.51,0.50,9.68,1436
16:34:29.680,14855,-0.99,-0.34,0.57,11.88,1437
16:34:29.692,14865,-1.17,-0.32,0.50,13.11,1438
16:34:29.702,14875,-0.88,-0.67,0.35,11.65,1439
16:34:29.712,14885,-0.53,-1.04,0.33,12.17,1440
16:34:29.727,14895,-0.31,-1.31,0.09,13.49,1441
16:34:29.730,14905,-0.15,-1.44,0.02,14.53,1442
16:34:29.741,14915,-0.00,-1.39,-0.01,13.91,1443
16:34:29.754,14925,-0.29,-1.14,0.07,11.79,1444
16:34:29.782,14935,-0.58,-0.90,0.24,11.01,1445
16:34:29.784,14945,-0.86,-0.72,0.30,11.60,1446
16:34:29.784,14955,-1.08,-0.52,0.31,12.36,1447
16:34:29.790,14965,-1.15,-0.32,0.40,12.64,1448
16:34:29.805,14975,-1.12,-0.19,0.39,12.04,1449
16:34:29.811,14985,-0.89,-0.44,0.30,10.34,1450
16:34:29.822,14995,-0.68,-0.75,0.22,10.34,1451
16:34:29.838,15005,-0.58,-0.90,0.13,10.73,1452
16:34:29.840,15015,-0.51,-0.98,0.03,11.02,1453
16:34:29.851,15025,-0.51,-0.95,-0.01,10.77,1454
16:34:29.863,15035,-0.63,-0.77,0.04,9.99,1455
16:34:29.873,15045,-0.70,-0.70,0.06,9.92,1456
16:34:29.881,15055,-0.75,-0.62,0.05,9.74,1457
16:34:29.895,15065,-0.78,-0.56,0.04,9.61,1458
16:34:29.901,15075,-0.79,-0.55,0.01,9.62,1459
16:34:29.917,15085,-0.79,-0.62,-0.03,10.01,1460
16:34:29.922,15095,-0.78,-0.67,-0.04,10.33,1461
16:34:29.941,15105,-0.78,-0.70,-0.03,10.50,1462
16:34:29.942,15115,-0.76,-0.70,-0.01,10.33,1463
16:34:29.974,15125,-0.76,-0.66,-0.02,10.07,1464
16:34:29.978,15135,-0.77,-0.61,0.00,9.81,1465
16:34:29.980,15145,-0.78,-0.60,-0.02,9.79,1466
16:34:29.981,15155,-0.77,-0.63,-0.03,9.90,1467
16:34:30.001,15165,-0.75,-0.67,-0.03,10.06,1468
16:34:30.001,15175,-0.75,-0.70,-0.03,10.29,1469
16:34:30.011,15185,-0.77,-0.69,-0.04,10.35,1470
16:34:30.020,15195,-0.76,-0.66,-0.01,10.10,1471
16:34:30.031,15205,-0.79,-0.61,0.03,10.02,1472
16:34:30.044,15215,-0.85,-0.60,0.03,10.37,1473
16:34:30.054,15225,-0.84,-0.60,0.07,10.33,1474
16:34:30.105,15235,-0.79,-0.64,0.04,10.16,1475
16:34:30.106,15245,-0.72,-0.70,0.03,10.10,1476
16:34:30.107,15255,-0.71,-0.73,0.05,10.19,1477
16:34:30.108,15265,-0.72,-0.73,0.11,10.38,1478
16:34:30.108,15275,-0.80,-0.72,0.16,10.89,1479
16:34:30.141,15285,-0.83,-0.70,0.15,10.92,1480
16:34:30.284,15295,-0.86,-0.63,0.14,10.75,1481
16:34:30.285,15305,-0.91,-0.51,0.05,10.48,1482
16:34:30.287,15315,-0.91,-0.46,0.01,10.19,1483
16:34:30.290,15325,-0.90,-0.47,0.01,10.15,1484
16:34:30.291,15335,-0.94,-0.51,0.01,10.71,1485
16:34:30.292,15345,-1.02,-0.52,0.01,11.48,1486
16:34:30.293,15355,-1.10,-0.48,-0.02,11.99,1487
16:34:30.295,15365,-1.16,-0.43,-0.06,12.44,1488
16:34:30.298,15375,-1.33,-0.44,-0.16,14.12,1489
16:34:30.312,15385,-1.53,-0.75,-0.25,17.25,1490
16:34:30.312,15395,-1.76,-0.81,-0.32,19.68,1491
16:34:30.312,15405,-1.76,-0.63,-0.56,19.53,1492
16:34:30.312,15415,-1.61,-0.57,-0.68,18.39,1493
16:34:30.312,15425,-1.41,-0.73,-0.43,16.47,1494
16:34:30.312,15435,-1.33,-0.93,-0.11,16.26,1495
16:34:30.312,15445,-1.22,-1.11,0.10,16.49,1496
16:34:30.312,15455,-0.91,-1.15,0.07,14.69,1497
16:34:30.312,15465,-0.71,-1.26,0.36,14.93,1498
16:34:30.316,15475,-0.62,-1.31,0.83,16.69,1499
16:34:30.316,15485,-0.62,-1.45,0.99,18.58,1500
16:34:30.321,15495,-0.49,-1.32,1.00,17.29,1501
16:34:30.332,15505,-0.57,-1.11,0.82,14.96,1502
16:34:30.347,15515,-0.37,-1.01,0.90,13.99,1503
16:34:30.352,15525,-0.10,-0.90,1.17,14.77,1504
16:34:30.367,15535,0.06,-0.85,1.13,14.21,1505
16:34:30.371,15545,-0.06,-0.76,0.88,11.64,1506
16:34:30.386,15555,-0.37,-0.62,0.59,9.33,1507
16:34:30.390,15565,-0.54,-0.70,0.49,10.06,1508
16:34:30.400,15575,-0.38,-0.74,0.61,10.26,1509
16:34:30.412,15585,-0.22,-0.82,0.60,10.38,1510
16:34:30.422,15595,-0.04,-0.87,0.62,10.67,1511
16:34:30.430,15605,0.11,-0.81,0.60,10.18,1512
16:34:30.441,15615,0.19,-0.74,0.58,9.59,1513
16:34:30.450,15625,0.10,-0.60,0.63,8.75,1514
16:34:30.464,15635,0.01,-0.47,0.66,8.08,1515
16:34:30.471,15645,-0.06,-0.38,0.67,7.68,1516
16:34:30.494,15655,-0.07,-0.30,0.68,7.47,1517
16:34:30.497,15665,-0.04,-0.23,0.77,8.01,1518
16:34:30.502,15675,-0.04,-0.19,0.68,7.08,1519
16:34:30.520,15685,-0.04,-0.18,0.62,6.48,1520
16:34:30.523,15695,0.03,-0.31,0.61,6.89,1521
16:34:30.531,15705,0.02,-0.40,0.59,7.12,1522
16:34:30.554,15715,-0.07,-0.45,0.58,7.38,1523
16:34:30.557,15725,-0.14,-0.52,0.59,8.01,1524
16:34:30.563,15735,-0.18,-0.55,0.60,8.32,1525
16:34:30.570,15745,-0.20,-0.57,0.62,8.65,1526
16:34:30.581,15755,-0.20,-0.58,0.67,9.08,1527
16:34:30.591,15765,-0.28,-0.55,0.57,8.38,1528
16:34:30.601,15775,-0.33,-0.54,0.47,7.92,1529
16:34:30.616,15785,-0.44,-0.64,0.51,9.33,1530
16:34:30.621,15795,-0.56,-0.63,0.53,9.99,1531
16:34:30.638,15805,-0.64,-0.59,0.48,9.96,1532
16:34:30.640,15815,-0.70,-0.51,0.37,9.44,1533
16:34:30.651,15825,-0.82,-0.43,0.26,9.58,1534
16:34:30.661,15835,-0.92,-0.45,0.21,10.48,1535
16:34:30.672,15845,-0.85,-0.48,0.36,10.40,1536
16:34:30.689,15855,-0.70,-0.55,0.47,10.06,1537
16:34:30.692,15865,-0.70,-0.62,-0.15,9.45,1538
16:34:30.702,15875,-0.63,-0.29,-0.36,7.77,1539
16:34:30.712,15885,-0.79,-0.07,-1.02,12.94,1540
16:34:30.728,15895,-0.86,0.01,-1.30,15.57,1541
16:34:30.733,15905,-0.80,0.23,-1.09,13.67,1542
16:34:30.744,15915,-0.86,-0.05,-0.82,11.90,1543
16:34:30.754,15925,-0.77,-0.27,-0.57,9.95,1544
16:34:30.764,15935,-0.49,-0.44,-0.14,6.71,1545
16:34:30.773,15945,-0.36,-0.65,-0.20,7.69,1546
16:34:30.827,15955,-0.36,-0.74,-0.11,8.32,1547
16:34:30.831,15965,-0.73,-0.83,-0.02,11.07,1548
16:34:30.832,15975,-1.56,-0.93,0.14,18.16,1549
16:34:30.833,15985,-2.13,-0.80,0.44,23.13,1550
16:34:30.833,15995,-2.11,-0.38,0.29,21.59,1551
16:34:30.867,16005,-1.42,0.23,0.01,14.35,1552
16:34:30.869,16015,-0.89,0.04,-0.23,9.23,1553
16:34:30.870,16025,-0.62,-0.57,0.11,8.51,1554
16:34:30.871,16035,-0.58,-0.83,0.26,10.51,1555
16:34:30.872,16045,-0.59,-1.04,0.25,12.17,1556
16:34:30.903,16055,-0.40,-0.92,0.43,10.96,1557
16:34:30.907,16065,-0.58,-0.75,0.56,11.04,1558
16:34:30.907,16075,-0.79,-0.51,0.62,11.24,1559
16:34:30.945,16085,-0.86,-0.32,0.61,11.00,1560
16:34:30.949,16095,-1.03,-0.24,0.45,11.45,1561
16:34:30.949,16105,-0.95,-0.45,0.26,10.85,1562
16:34:30.949,16115,-0.76,-0.77,0.17,10.93,1563
16:34:30.952,16125,-0.53,-1.05,0.11,11.81,1564
16:34:30.987,16135,-0.38,-1.26,-0.04,13.18,1565
16:34:30.987,16145,-0.20,-1.41,-0.23,14.44,1566
16:34:30.990,16155,-0.23,-1.23,-0.35,12.99,1567
16:34:30.990,16165,-0.22,-1.11,0.32,11.79,1568
16:34:31.014,16175,-0.47,-1.02,0.07,11.26,1569
16:34:31.014,16185,-0.71,-0.82,0.17,11.01,1570
16:34:31.021,16195,-0.87,-0.67,0.26,11.22,1571
16:34:31.030,16205,-1.02,-0.53,0.37,12.02,1572
16:34:31.064,16215,-1.02,-0.38,0.42,11.70,1573
16:34:31.065,16225,-0.89,-0.46,0.35,10.62,1574
16:34:31.065,16235,-0.74,-0.67,0.22,10.29,1575
16:34:31.071,16245,-0.67,-0.79,0.16,10.46,1576
16:34:31.081,16255,-0.69,-0.80,0.12,10.63,1577
16:34:31.096,16265,-0.68,-0.80,0.09,10.50,1578
16:34:31.100,16275,-0.67,-0.77,0.07,10.28,1579
16:34:31.112,16285,-0.69,-0.71,0.08,9.93,1580
16:34:31.122,16295,-0.76,-0.65,0.06,10.01,1581
16:34:31.132,16305,-0.81,-0.59,0.05,10.04,1582
16:34:31.140,16315,-0.84,-0.58,0.06,10.23,1583
16:34:31.150,16325,-0.81,-0.61,0.06,10.11,1584
16:34:31.161,16335,-0.77,-0.63,0.05,9.99,1585
16:34:31.173,16345,-0.74,-0.66,0.04,9.99,1586
16:34:31.183,16355,-0.73,-0.69,0.03,10.03,1587
16:34:31.192,16365,-0.75,-0.68,0.04,10.14,1588
16:34:31.205,16375,-0.77,-0.66,0.03,10.13,1589
16:34:31.214,16385,-0.78,-0.63,0.03,10.01,1590
16:34:31.266,16395,-0.80,-0.60,0.02,9.99,1591
16:34:31.266,16405,-0.80,-0.59,0.02,9.92,1592
16:34:31.266,16415,-0.79,-0.59,-0.01,9.90,1593
16:34:31.285,16425,-0.80,-0.59,-0.04,9.92,1594
16:34:31.288,16435,-0.82,-0.58,-0.07,10.06,1595
16:34:31.288,16445,-0.84,-0.57,-0.07,10.18,1596
16:34:31.290,16455,-0.84,-0.58,-0.05,10.25,1597
16:34:31.319,16465,-0.81,-0.61,-0.03,10.15,1598
16:34:31.320,16475,-0.75,-0.67,-0.04,10.09,1599
16:34:31.321,16485,-0.71,-0.74,-0.07,10.28,1600
16:34:31.322,16495,-0.70,-0.74,-0.04,10.18,1601
16:34:31.330,16505,-0.73,-0.72,-0.00,10.25,1602
16:34:31.340,16515,-0.74,-0.72,0.09,10.32,1603
16:34:31.354,16525,-0.82,-0.68,0.19,10.82,1604
16:34:31.363,16535,-0.86,-0.65,0.22,11.05,1605
16:34:31.374,16545,-0.89,-0.63,0.22,11.08,1606
16:34:31.384,16555,-0.83,-0.60,0.15,10.37,1607
16:34:31.390,16565,-0.79,-0.57,0.06,9.80,1608
16:34:31.405,16575,-0.80,-0.59,0.03,9.91,1609
16:34:31.410,16585,-0.88,-0.63,0.02,10.81,1610
16:34:31.424,16595,-0.95,-0.64,-0.02,11.47,1611
16:34:31.431,16605,-1.01,-0.60,-0.07,11.82,1612
16:34:31.445,16615,-1.07,-0.53,-0.12,12.06,1613
16:34:31.452,16625,-1.16,-0.47,-0.17,12.61,1614
16:34:31.463,16635,-1.26,-0.54,-0.24,13.93,1615
16:34:31.471,16645,-1.45,-0.71,-0.26,16.33,1616
16:34:31.492,16655,-1.65,-0.64,-0.31,18.02,1617
16:34:31.538,16665,-1.71,-0.47,-0.43,18.21,1618
16:34:31.683,16675,-1.70,-0.44,-0.55,18.46,1619
16:34:31.683,16685,-1.52,-0.64,-0.45,17.07,1620
16:34:31.717,16695,-1.44,-0.92,-0.16,17.12,1621
16:34:31.718,16705,-1.25,-1.11,0.04,16.74,1622
16:34:31.721,16715,-0.92,-1.24,0.08,15.41,1623
16:34:31.725,16725,-0.64,-1.32,0.25,14.90,1624
16:34:31.725,16735,-0.44,-1.40,0.59,15.76,1625
16:34:31.725,16745,-0.43,-1.47,0.74,16.97,1626
16:34:31.725,16755,-0.50,-1.37,0.97,17.53,1627
16:34:31.726,16765,-0.59,-1.15,0.95,16.08,1628
16:34:31.767,16775,-0.59,-0.99,0.92,14.77,1629
16:34:31.780,16785,-0.46,-0.82,1.10,14.50,1630
16:34:31.781,16795,-0.14,-0.64,1.37,15.23,1631
16:34:31.781,16805,-0.04,-0.47,1.34,14.22,1632
16:34:31.825,16815,-0.14,-0.26,1.11,11.45,1633
16:34:31.825,16825,-0.26,-0.12,0.73,7.85,1634
16:34:31.825,16835,-0.32,-0.31,0.55,7.10,1635
16:34:31.825,16845,-0.38,-0.69,0.41,8.89,1636
16:34:31.825,16855,-0.36,-1.01,0.31,11.17,1637
16:34:31.825,16865,-0.12,-1.03,0.55,11.74,1638
16:34:31.825,16875,0.09,-1.01,0.54,11.50,1639
16:34:31.825,16885,0.23,-0.85,0.54,10.32,1640
16:34:31.825,16895,0.14,-0.69,0.56,9.03,1641
16:34:31.825,16905,-0.03,-0.47,0.65,8.07,1642
16:34:31.828,16915,-0.10,-0.39,0.70,8.07,1643
16:34:31.828,16925,-0.18,-0.29,0.74,8.18,1644
16:34:31.828,16935,-0.23,-0.11,0.94,9.70,1645
16:34:31.831,16945,-0.28,-0.04,0.90,9.46,1646
16:34:31.831,16955,-0.28,0.03,0.83,8.76,1647
16:34:31.835,16965,-0.11,-0.00,0.76,7.69,1648
16:34:31.835,16975,0.02,-0.13,0.64,6.52,1649
16:34:31.842,16985,-0.11,-0.32,0.48,5.87,1650
16:34:31.842,16995,-0.27,-0.46,0.49,7.25,1651
16:34:31.842,17005,-0.31,-0.49,0.55,8.03,1652
16:34:31.842,17015,-0.34,-0.46,0.63,8.57,1653
16:34:31.850,17025,-0.31,-0.46,0.74,9.23,1654
16:34:31.862,17035,-0.30,-0.61,0.71,9.83,1655
16:34:31.873,17045,-0.39,-0.82,0.58,10.81,1656
16:34:31.882,17055,-0.44,-0.98,0.40,11.46,1657
16:34:31.891,17065,-0.54,-0.88,0.19,10.49,1658
16:34:31.901,17075,-0.67,-0.53,0.17,8.70,1659
16:34:31.910,17085,-0.82,-0.50,0.26,9.91,1660
16:34:31.921,17095,-0.89,-0.53,0.37,11.00,1661
16:34:31.930,17105,-0.88,-0.52,0.47,11.28,1662
16:34:31.941,17115,-0.83,-0.44,-0.02,9.38,1663
16:34:31.959,17125,-0.54,-0.11,-0.51,7.47,1664
16:34:31.960,17135,-0.54,0.03,-0.93,10.77,1665
16:34:31.975,17145,-0.77,0.47,-1.22,15.21,1666
16:34:31.982,17155,-0.91,0.31,-1.10,14.58,1667
16:34:31.994,17165,-1.01,-0.00,-0.80,12.89,1668
16:34:32.003,17175,-0.76,-0.41,-0.41,9.54,1669
16:34:32.010,17185,-0.42,-0.59,-0.19,7.49,1670
16:34:32.020,17195,-0.40,-0.76,-0.12,8.71,1671
16:34:32.032,17205,-0.83,-0.94,-0.12,12.61,1672
16:34:32.047,17215,-1.48,-1.03,0.09,18.06,1673
16:34:32.050,17225,-2.11,-0.84,0.19,22.78,1674
16:34:32.061,17235,-1.86,-0.14,0.01,18.60,1675
16:34:32.077,17245,-1.45,0.32,-0.30,15.15,1676
16:34:32.082,17255,-1.27,0.22,-0.16,13.04,1677
16:34:32.091,17265,-0.86,-0.71,0.07,11.21,1678
16:34:32.101,17275,-0.64,-1.02,0.13,12.12,1679
16:34:32.118,17285,-0.28,-0.91,0.69,11.75,1680
16:34:32.120,17295,-0.06,-1.09,0.48,11.89,1681
16:34:32.132,17305,-0.19,-0.92,0.24,9.67,1682
16:34:32.140,17315,-0.39,-0.67,0.39,8.69,1683
16:34:32.157,17325,-0.64,-0.59,0.55,10.26,1684
16:34:32.160,17335,-0.96,-0.50,0.59,12.29,1685
16:34:32.170,17345,-1.25,-0.36,0.53,14.03,1686
16:34:32.185,17355,-1.33,-0.18,0.48,14.25,1687
16:34:32.194,17365,-1.02,-0.37,0.34,11.37,1688
16:34:32.202,17375,-0.68,-0.77,0.24,10.53,1689
16:34:32.213,17385,-0.41,-1.05,0.17,11.45,1690
16:34:32.223,17395,-0.30,-1.24,0.04,12.77,1691
16:34:32.230,17405,-0.16,-1.32,-0.13,13.39,1692
16:34:32.244,17415,-0.19,-1.26,-0.14,12.80,1693
16:34:32.288,17425,-0.43,-1.04,0.05,11.31,1694
16:34:32.289,17435,-0.62,-0.93,0.17,11.27,1695
16:34:32.290,17445,-0.81,-0.75,0.21,11.27,1696
16:34:32.292,17455,-1.02,-0.54,0.25,11.75,1697
16:34:32.293,17465,-1.08,-0.38,0.34,11.96,1698
16:34:32.320,17475,-1.08,-0.23,0.39,11.73,1699
16:34:32.321,17485,-0.96,-0.34,0.33,10.68,1700
16:34:32.322,17495,-0.77,-0.61,0.23,10.07,1701
16:34:32.362,17505,-0.65,-0.79,0.10,10.28,1702
16:34:32.363,17515,-0.57,-0.92,0.03,10.82,1703
16:34:32.363,17525,-0.52,-0.98,-0.02,11.11,1704
16:34:32.366,17535,-0.62,-0.85,-0.03,10.54,1705
16:34:32.404,17545,-0.72,-0.70,0.05,10.01,1706
16:34:32.404,17555,-0.83,-0.58,0.06,10.09,1707
16:34:32.405,17565,-0.90,-0.48,0.09,10.25,1708
16:34:32.407,17575,-0.91,-0.49,0.10,10.39,1709
16:34:32.442,17585,-0.84,-0.57,0.06,10.21,1710
16:34:32.442,17595,-0.79,-0.65,-0.01,10.24,1711
16:34:32.443,17605,-0.72,-0.74,-0.01,10.32,1712
16:34:32.444,17615,-0.66,-0.78,0.01,10.25,1713
16:34:32.481,17625,-0.66,-0.78,-0.04,10.23,1714
16:34:32.482,17635,-0.70,-0.69,-0.02,9.83,1715
16:34:32.483,17645,-0.77,-0.64,0.01,10.02,1716
16:34:32.484,17655,-0.83,-0.59,0.04,10.17,1717
16:34:32.517,17665,-0.88,-0.56,0.06,10.45,1718
16:34:32.517,17675,-0.92,-0.52,0.04,10.60,1719
16:34:32.518,17685,-0.96,-0.47,-0.01,10.71,1720
16:34:32.520,17695,-0.97,-0.44,-0.07,10.70,1721
16:34:32.531,17705,-0.95,-0.46,-0.16,10.73,1722
16:34:32.549,17715,-0.91,-0.52,-0.19,10.65,1723
16:34:32.550,17725,-0.85,-0.63,-0.21,10.75,1724
16:34:32.626,17735,-0.83,-0.65,-0.15,10.65,1725
16:34:32.626,17745,-0.82,-0.68,-0.15,10.77,1726
16:34:32.628,17755,-0.81,-0.67,-0.15,10.59,1727
16:34:32.661,17765,-0.82,-0.60,-0.11,10.25,1728
16:34:32.664,17775,-0.84,-0.58,-0.05,10.21,1729
16:34:32.666,17785,-0.84,-0.61,-0.01,10.39,1730
16:34:32.667,17795,-0.89,-0.56,0.02,10.49,1731
16:34:32.667,17805,-0.94,-0.53,0.03,10.83,1732
16:34:32.670,17815,-0.93,-0.56,0.04,10.90,1733
16:34:32.671,17825,-0.92,-0.58,0.02,10.87,1734
16:34:32.673,17835,-0.96,-0.56,0.01,11.16,1735
16:34:32.676,17845,-1.05,-0.59,0.01,12.06,1736
16:34:32.683,17855,-1.15,-0.75,0.06,13.74,1737
16:34:32.698,17865,-1.35,-0.68,0.16,15.18,1738
16:34:32.746,17875,-1.59,-0.48,-0.00,16.59,1739
16:34:32.799,17885,-1.59,-0.32,-0.21,16.35,1740
16:34:32.856,17895,-1.86,-0.10,-0.22,18.71,1741
16:34:32.857,17905,-1.97,-0.18,-0.33,20.03,1742
16:34:32.858,17915,-1.61,-0.59,-0.22,17.29,1743
16:34:32.863,17925,-1.36,-0.91,-0.12,16.39,1744
16:34:32.868,17935,-1.04,-1.14,-0.05,15.41,1745
16:34:32.869,17945,-0.68,-1.25,0.18,14.39,1746
16:34:32.873,17955,-0.42,-1.48,0.47,16.09,1747
16:34:32.890,17965,-0.37,-1.61,0.68,17.84,1748
16:34:32.890,17975,-0.38,-1.56,0.79,17.87,1749
16:34:32.890,17985,-0.46,-1.37,0.79,16.48,1750
16:34:32.890,17995,-0.48,-1.02,0.87,14.23,1751
16:34:32.890,18005,-0.18,-0.82,1.20,14.65,1752
16:34:32.890,18015,-0.21,-0.62,1.37,15.22,1753
16:34:32.890,18025,-0.39,-0.42,1.18,13.12,1754
16:34:32.890,18035,-0.46,-0.22,0.97,10.97,1755
16:34:32.890,18045,-0.47,-0.14,0.82,9.55,1756
16:34:32.891,18055,-0.44,-0.39,0.65,8.80,1757
16:34:32.901,18065,-0.40,-0.64,0.49,9.00,1758
16:34:32.905,18075,-0.28,-0.86,0.51,10.39,1759
16:34:32.913,18085,-0.10,-0.84,0.59,10.32,1760
16:34:32.921,18095,0.04,-0.77,0.59,9.70,1761
16:34:32.936,18105,0.09,-0.67,0.66,9.46,1762
16:34:32.977,18115,0.06,-0.54,0.69,8.76,1763
16:34:32.977,18125,-0.06,-0.43,0.72,8.38,1764
16:34:32.980,18135,-0.14,-0.33,0.75,8.34,1765
16:34:32.980,18145,-0.23,-0.25,0.80,8.68,1766
16:34:33.131,18155,-0.29,-0.17,0.73,8.05,1767
16:34:33.131,18165,-0.18,-0.15,0.71,7.54,1768
16:34:33.132,18175,-0.00,-0.30,0.71,7.73,1769
16:34:33.133,18185,0.02,-0.37,0.59,7.00,1770
16:34:33.134,18195,-0.14,-0.35,0.50,6.30,1771
16:34:33.172,18205,-0.27,-0.36,0.55,7.10,1772
16:34:33.177,18215,-0.34,-0.27,0.62,7.61,1773
16:34:33.177,18225,-0.42,-0.20,0.57,7.38,1774
16:34:33.177,18235,-0.45,-0.23,0.70,8.65,1775
16:34:33.177,18245,-0.49,-0.38,0.74,9.60,1776
16:34:33.177,18255,-0.60,-0.61,0.64,10.65,1777
16:34:33.177,18265,-0.51,-0.84,0.54,11.17,1778
16:34:33.177,18275,-0.52,-0.88,0.33,10.77,1779
16:34:33.177,18285,-0.47,-0.83,0.20,9.79,1780
16:34:33.177,18295,-0.55,-0.75,0.18,9.43,1781
16:34:33.177,18305,-0.72,-0.72,0.28,10.57,1782
16:34:33.179,18315,-0.78,-0.56,0.44,10.56,1783
16:34:33.179,18325,-0.88,-0.39,0.20,9.84,1784
16:34:33.179,18335,-0.87,0.01,-0.15,8.87,1785
16:34:33.179,18345,-0.96,0.42,-0.54,11.77,1786
16:34:33.210,18355,-1.08,0.67,-0.96,15.91,1787
16:34:33.210,18365,-0.98,0.59,-1.21,16.66,1788
16:34:33.211,18375,-0.85,0.12,-1.04,13.44,1789
16:34:33.213,18385,-0.76,-0.57,-0.86,12.78,1790
16:34:33.225,18395,-0.59,-0.76,-0.26,9.96,1791
16:34:33.231,18405,-0.37,-0.89,-0.08,9.68,1792
16:34:33.245,18415,-0.28,-0.91,-0.14,9.63,1793
16:34:33.252,18425,-0.76,-0.93,-0.08,12.02,1794
16:34:33.270,18435,-1.49,-0.86,0.27,17.43,1795
16:34:33.273,18445,-2.04,-0.60,0.40,21.60,1796
16:34:33.281,18455,-1.95,-0.08,0.20,19.58,1797
16:34:33.293,18465,-1.42,0.35,-0.11,14.70,1798
16:34:33.300,18475,-1.14,0.10,-0.17,11.54,1799
16:34:33.310,18485,-0.85,-0.83,0.05,11.85,1800
16:34:33.325,18495,-0.67,-0.91,0.22,11.51,1801
16:34:33.331,18505,-0.49,-1.14,0.27,12.69,1802
16:34:33.340,18515,-0.21,-1.20,0.44,12.93,1803
16:34:33.351,18525,-0.20,-1.07,0.17,10.98,1804
16:34:33.360,18535,-0.34,-0.69,0.23,8.07,1805
16:34:33.370,18545,-0.55,-0.63,0.35,9.08,1806
16:34:33.386,18555,-0.79,-0.55,0.53,10.98,1807
16:34:33.393,18565,-1.12,-0.47,0.45,12.90,1808
16:34:33.403,18575,-1.26,-0.36,0.34,13.53,1809
16:34:33.411,18585,-1.13,-0.41,0.26,12.31,1810
16:34:33.421,18595,-0.74,-0.72,0.22,10.55,1811
16:34:33.432,18605,-0.50,-0.95,0.11,10.77,1812
16:34:33.441,18615,-0.36,-1.05,0.05,11.10,1813
16:34:33.451,18625,-0.37,-1.04,-0.01,11.00,1814
16:34:33.460,18635,-0.52,-0.87,-0.03,10.11,1815
16:34:33.471,18645,-0.67,-0.79,0.12,10.41,1816
16:34:33.486,18655,-0.78,-0.75,0.18,10.93,1817
16:34:33.493,18665,-0.85,-0.69,0.19,11.16,1818
16:34:33.503,18675,-0.89,-0.61,0.23,11.01,1819
16:34:33.511,18685,-0.94,-0.50,0.26,11.01,1820
16:34:33.526,18695,-0.97,-0.42,0.29,10.99,1821
16:34:33.531,18705,-0.96,-0.43,0.26,10.80,1822
16:34:33.545,18715,-0.87,-0.54,0.17,10.36,1823
16:34:33.551,18725,-0.79,-0.66,0.11,10.37,1824
16:34:33.562,18735,-0.67,-0.80,0.07,10.51,1825
16:34:33.571,18745,-0.58,-0.88,0.02,10.58,1826
16:34:33.581,18755,-0.59,-0.85,0.03,10.33,1827
16:34:33.594,18765,-0.66,-0.75,0.09,10.03,1828
16:34:33.622,18775,-0.77,-0.64,0.11,10.05,1829
16:34:33.622,18785,-0.84,-0.54,0.14,10.11,1830
16:34:33.623,18795,-0.86,-0.52,0.15,10.20,1831
16:34:33.631,18805,-0.81,-0.59,0.09,10.09,1832
16:34:33.641,18815,-0.75,-0.65,0.02,9.99,1833
16:34:33.656,18825,-0.73,-0.72,0.00,10.24,1834
16:34:33.660,18835,-0.73,-0.72,0.01,10.23,1835
16:34:33.674,18845,-0.74,-0.68,0.02,10.02,1836
16:34:33.681,18855,-0.77,-0.63,0.02,9.93,1837
16:34:33.690,18865,-0.79,-0.61,0.02,10.01,1838
16:34:33.705,18875,-0.81,-0.62,0.04,10.19,1839
16:34:33.712,18885,-0.78,-0.64,0.06,10.17,1840
16:34:33.720,18895,-0.80,-0.65,0.05,10.29,1841
16:34:33.731,18905,-0.81,-0.66,0.05,10.48,1842
16:34:33.747,18915,-0.78,-0.68,0.07,10.38,1843
16:34:33.751,18925,-0.77,-0.67,0.05,10.17,1844
16:34:33.806,18935,-0.77,-0.61,0.00,9.83,1845
16:34:33.806,18945,-0.78,-0.56,-0.02,9.62,1846
16:34:33.807,18955,-0.82,-0.61,-0.02,10.28,1847
16:34:33.808,18965,-0.82,-0.68,0.02,10.63,1848
16:34:33.810,18975,-0.85,-0.71,0.01,11.06,1849
16:34:33.845,18985,-0.86,-0.66,-0.00,10.80,1850
16:34:33.846,18995,-0.85,-0.62,0.01,10.52,1851
16:34:33.847,19005,-0.81,-0.62,0.00,10.19,1852
16:34:33.848,19015,-0.79,-0.63,-0.02,10.10,1853
16:34:33.849,19025,-0.80,-0.61,-0.05,10.12,1854
16:34:33.888,19035,-0.84,-0.59,-0.07,10.25,1855
16:34:33.888,19045,-0.90,-0.55,-0.07,10.58,1856
16:34:33.889,19055,-0.97,-0.48,-0.06,10.82,1857
16:34:33.890,19065,-1.03,-0.46,-0.06,11.25,1858
16:34:33.977,19075,-1.11,-0.56,-0.08,12.45,1859
16:34:33.992,19085,-1.20,-0.69,0.02,13.83,1860
16:34:33.994,19095,-1.45,-0.64,-0.02,15.88,1861
16:34:33.994,19105,-1.52,-0.47,-0.19,16.02,1862
16:34:34.044,19115,-1.64,-0.34,-0.30,17.05,1863
16:34:34.044,19125,-1.62,-0.38,-0.49,17.32,1864
16:34:34.044,19135,-1.56,-0.63,-0.28,17.03,1865
16:34:34.044,19145,-1.56,-0.83,-0.05,17.62,1866
16:34:34.045,19155,-1.34,-0.99,0.03,16.64,1867
16:34:34.046,19165,-0.95,-1.09,0.12,14.53,1868
16:34:34.066,19175,-0.66,-1.22,0.23,14.05,1869
16:34:34.067,19185,-0.53,-1.33,0.48,15.09,1870
16:34:34.069,19195,-0.54,-1.42,0.75,16.98,1871
16:34:34.084,19205,-0.57,-1.36,0.85,17.06,1872
16:34:34.084,19215,-0.63,-1.13,0.86,15.59,1873
16:34:34.084,19225,-0.53,-0.93,1.04,14.95,1874
16:34:34.085,19235,-0.33,-0.75,1.17,14.30,1875
16:34:34.086,19245,-0.14,-0.62,1.42,15.58,1876
16:34:34.090,19255,-0.21,-0.46,1.23,13.34,1877
16:34:34.095,19265,-0.35,-0.27,0.90,10.05,1878
16:34:34.101,19275,-0.42,-0.27,0.64,8.11,1879
16:34:34.111,19285,-0.39,-0.59,0.60,9.28,1880
16:34:34.121,19295,-0.36,-0.83,0.52,10.44,1881
16:34:34.134,19305,-0.18,-0.93,0.50,10.75,1882
16:34:34.144,19315,-0.03,-0.85,0.62,10.52,1883
16:34:34.154,19325,0.07,-0.78,0.64,10.10,1884
16:34:34.163,19335,0.09,-0.62,0.64,8.96,1885
16:34:34.173,19345,-0.00,-0.48,0.63,7.88,1886
16:34:34.181,19355,-0.12,-0.37,0.68,7.86,1887
16:34:34.191,19365,-0.20,-0.33,0.76,8.58,1888
16:34:34.206,19375,-0.26,-0.23,0.82,8.88,1889
16:34:34.212,19385,-0.28,-0.20,0.84,9.04,1890
16:34:34.231,19395,-0.19,-0.20,0.76,8.12,1891
16:34:34.231,19405,-0.05,-0.27,0.74,7.84,1892
16:34:34.282,19415,-0.03,-0.30,0.64,7.08,1893
16:34:34.288,19425,-0.25,-0.32,0.42,5.83,1894
16:34:34.294,19435,-0.41,-0.31,0.43,6.66,1895
16:34:34.295,19445,-0.45,-0.34,0.59,8.16,1896
16:34:34.296,19455,-0.44,-0.38,0.68,8.95,1897
16:34:34.303,19465,-0.35,-0.37,0.74,9.02,1898
16:34:34.309,19475,-0.35,-0.45,0.65,8.70,1899
16:34:34.312,19485,-0.38,-0.69,0.60,9.86,1900
16:34:34.328,19495,-0.40,-0.86,0.46,10.56,1901
16:34:34.330,19505,-0.54,-0.83,0.30,10.30,1902
16:34:34.341,19515,-0.59,-0.66,0.24,9.20,1903
16:34:34.355,19525,-0.70,-0.58,0.25,9.44,1904
16:34:34.372,19535,-0.78,-0.55,0.23,9.86,1905
16:34:34.373,19545,-0.87,-0.68,0.25,11.34,1906
16:34:34.403,19555,-0.77,-0.69,0.33,10.87,1907
16:34:34.403,19565,-0.59,-0.64,0.08,8.75,1908
16:34:34.417,19575,-0.52,-0.32,-0.47,7.71,1909
16:34:34.420,19585,-0.65,0.11,-0.87,10.94,1910
16:34:34.421,19595,-0.78,0.29,-1.00,13.05,1911
16:34:34.437,19605,-0.90,0.24,-0.85,12.59,1912
16:34:34.441,19615,-0.90,0.06,-0.75,11.70,1913
16:34:34.478,19625,-0.69,-0.14,-0.60,9.31,1914
16:34:34.478,19635,-0.56,-0.44,-0.28,7.66,1915
16:34:34.480,19645,-0.61,-0.65,0.03,8.93,1916
16:34:34.481,19655,-0.52,-0.89,-0.03,10.32,1917
16:34:34.520,19665,-0.68,-0.94,-0.03,11.60,1918
16:34:34.521,19675,-1.20,-0.85,0.03,14.70,1919
16:34:34.522,19685,-1.76,-0.73,0.08,19.08,1920
16:34:34.524,19695,-2.02,-0.24,0.14,20.34,1921
16:34:34.562,19705,-1.96,0.15,-0.07,19.72,1922
16:34:34.562,19715,-1.69,0.29,-0.01,17.10,1923
16:34:34.564,19725,-1.23,0.10,0.06,12.39,1924
16:34:34.565,19735,-0.80,-0.59,0.28,10.30,1925
16:34:34.601,19745,-0.39,-0.73,0.38,9.12,1926
16:34:34.603,19755,-0.36,-0.98,0.15,10.53,1927
16:34:34.604,19765,-0.34,-1.00,0.31,10.97,1928
16:34:34.605,19775,-0.60,-0.81,0.44,11.00,1929
16:34:34.634,19785,-0.85,-0.62,0.47,11.48,1930
16:34:34.634,19795,-0.86,-0.47,0.56,11.31,1931
16:34:34.637,19805,-0.95,-0.34,0.49,11.25,1932
16:34:34.640,19815,-1.05,-0.27,0.31,11.25,1933
16:34:34.672,19825,-0.84,-0.55,0.22,10.26,1934
16:34:34.672,19835,-0.68,-0.85,0.16,10.99,1935
16:34:34.674,19845,-0.60,-0.99,0.07,11.65,1936
16:34:34.680,19855,-0.50,-1.13,-0.02,12.32,1937
16:34:34.694,19865,-0.38,-1.17,-0.06,12.31,1938
16:34:34.700,19875,-0.35,-1.10,-0.11,11.56,1939
16:34:34.713,19885,-0.45,-0.93,-0.03,10.30,1940
16:34:34.723,19895,-0.61,-0.83,0.11,10.34,1941
16:34:34.733,19905,-0.75,-0.74,0.16,10.66,1942
16:34:34.741,19915,-0.86,-0.65,0.20,10.95,1943
16:34:34.751,19925,-0.95,-0.57,0.22,11.32,1944
16:34:34.760,19935,-0.96,-0.52,0.22,11.08,1945
16:34:34.774,19945,-0.88,-0.54,0.19,10.54,1946
16:34:34.780,19955,-0.80,-0.61,0.13,10.12,1947
16:34:34.790,19965,-0.76,-0.66,0.09,10.10,1948
16:34:34.803,19975,-0.73,-0.73,0.05,10.29,1949
16:34:34.817,19985,-0.68,-0.81,-0.01,10.61,1950
16:34:34.821,19995,-0.62,-0.86,-0.04,10.60,1951
16:34:34.835,20005,-0.59,-0.86,-0.04,10.41,1952
16:34:34.841,20015,-0.61,-0.81,-0.04,10.15,1953
16:34:34.850,20025,-0.69,-0.75,0.02,10.16,1954
16:34:34.861,20035,-0.78,-0.67,0.05,10.28,1955
16:34:34.874,20045,-0.85,-0.60,0.05,10.37,1956
16:34:34.902,20055,-0.87,-0.55,0.05,10.27,1957
16:34:34.904,20065,-0.82,-0.55,0.02,9.84,1958
16:34:34.905,20075,-0.85,-0.51,0.04,9.90,1959
16:34:34.910,20085,-0.88,-0.47,0.09,10.04,1960
16:34:34.920,20095,-0.93,-0.45,0.12,10.38,1961
16:34:34.936,20105,-0.95,-0.46,0.12,10.63,1962
16:34:34.942,20115,-0.88,-0.54,0.09,10.39,1963
16:34:34.952,20125,-0.80,-0.60,0.03,9.95,1964
16:34:34.960,20135,-0.75,-0.64,-0.02,9.84,1965
16:34:34.974,20145,-0.75,-0.67,-0.03,10.04,1966
16:34:34.982,20155,-0.79,-0.67,-0.01,10.31,1967
16:34:34.990,20165,-0.84,-0.64,0.02,10.53,1968
16:34:35.006,20175,-0.85,-0.60,0.04,10.39,1969
16:34:35.010,20185,-0.84,-0.56,0.04,10.07,1970
16:34:35.025,20195,-0.78,-0.58,-0.02,9.68,1971
16:34:35.030,20205,-0.75,-0.59,-0.03,9.55,1972
16:34:35.040,20215,-0.73,-0.66,-0.04,9.91,1973
16:34:35.058,20225,-0.72,-0.71,-0.03,10.10,1974
16:34:35.059,20235,-0.73,-0.74,0.03,10.42,1975
16:34:35.071,20245,-0.69,-0.78,0.08,10.42,1976
16:34:35.082,20255,-0.67,-0.78,0.10,10.35,1977
16:34:35.090,20265,-0.68,-0.74,0.08,10.11,1978
16:34:35.101,20275,-0.73,-0.67,0.05,9.91,1979
16:34:35.116,20285,-0.83,-0.58,0.04,10.13,1980
16:34:35.121,20295,-0.95,-0.51,0.10,10.81,1981
16:34:35.132,20305,-1.04,-0.48,0.13,11.49,1982
16:34:35.140,20315,-1.06,-0.50,0.15,11.77,1983
16:34:35.150,20325,-1.05,-0.53,0.10,11.79,1984
16:34:35.167,20335,-1.07,-0.63,0.03,12.46,1985
16:34:35.171,20345,-1.14,-0.84,0.05,14.13,1986
16:34:35.182,20355,-1.35,-0.79,0.05,15.65,1987
16:34:35.190,20365,-1.51,-0.63,-0.13,16.39,1988
16:34:35.331,20375,-1.46,-0.44,-0.24,15.46,1989
16:34:35.365,20385,-1.58,-0.50,-0.43,17.16,1990
16:34:35.366,20395,-1.69,-0.60,-0.56,18.81,1991
16:34:35.367,20405,-1.68,-0.76,-0.31,18.72,1992
16:34:35.368,20415,-1.64,-0.85,-0.18,18.54,1993
16:34:35.369,20425,-1.27,-0.94,-0.16,15.91,1994
16:34:35.373,20435,-0.93,-1.11,-0.02,14.43,1995
16:34:35.408,20445,-0.65,-1.18,0.18,13.57,1996
16:34:35.409,20455,-0.56,-1.29,0.38,14.58,1997
16:34:35.409,20465,-0.50,-1.34,0.78,16.26,1998
16:34:35.411,20475,-0.57,-1.33,0.86,16.80,1999
16:34:35.416,20485,-0.68,-1.11,0.85,15.56,2000
16:34:35.416,20495,-0.60,-0.84,0.94,13.93,2001
16:34:35.416,20505,-0.33,-0.68,1.14,13.71,2002
16:34:35.416,20515,-0.16,-0.61,1.36,14.99,2003
16:34:35.416,20525,-0.18,-0.48,1.27,13.68,2004
16:34:35.416,20535,-0.33,-0.28,0.95,10.42,2005
16:34:35.416,20545,-0.46,-0.28,0.67,8.63,2006
16:34:35.416,20555,-0.48,-0.55,0.53,8.99,2007
16:34:35.416,20565,-0.43,-0.82,0.50,10.54,2008
16:34:35.416,20575,-0.29,-0.97,0.47,11.13,2009
16:34:35.435,20585,-0.06,-0.88,0.62,10.77,2010
16:34:35.437,20595,0.13,-0.83,0.62,10.42,2011
16:34:35.437,20605,0.18,-0.67,0.58,9.08,2012
16:34:35.440,20615,0.10,-0.51,0.61,8.02,2013
16:34:35.450,20625,-0.03,-0.41,0.66,7.80,2014
16:34:35.460,20635,-0.16,-0.34,0.69,7.87,2015
16:34:35.475,20645,-0.26,-0.27,0.75,8.38,2016
16:34:35.480,20655,-0.28,-0.21,0.82,8.96,2017
16:34:35.490,20665,-0.17,-0.18,0.83,8.68,2018
16:34:35.504,20675,-0.04,-0.21,0.78,8.13,2019
16:34:35.511,20685,-0.05,-0.23,0.61,6.53,2020
16:34:35.522,20695,-0.17,-0.25,0.51,5.90,2021
16:34:35.530,20705,-0.32,-0.25,0.52,6.65,2022
16:34:35.545,20715,-0.42,-0.32,0.61,8.04,2023
16:34:35.550,20725,-0.44,-0.41,0.66,8.95,2024
16:34:35.561,20735,-0.40,-0.39,0.67,8.78,2025
16:34:35.570,20745,-0.39,-0.51,0.70,9.45,2026
16:34:35.580,20755,-0.40,-0.75,0.59,10.34,2027
16:34:35.591,20765,-0.38,-0.92,0.50,11.15,2028
16:34:35.603,20775,-0.46,-0.97,0.25,11.06,2029
16:34:35.612,20785,-0.56,-0.79,0.18,9.87,2030
16:34:35.630,20795,-0.74,-0.68,0.20,10.25,2031
16:34:35.632,20805,-0.88,-0.67,0.29,11.44,2032
16:34:35.643,20815,-0.89,-0.61,0.35,11.36,2033
16:34:35.652,20825,-0.73,-0.51,0.17,9.09,2034
16:34:35.664,20835,-0.68,-0.12,-0.38,7.89,2035
16:34:35.676,20845,-0.76,0.26,-0.87,11.84,2036
16:34:35.687,20855,-0.87,0.50,-1.18,15.49,2037
16:34:35.715,20865,-0.89,0.43,-1.31,16.38,2038
16:34:35.716,20875,-0.84,0.10,-1.03,13.33,2039
16:34:35.718,20885,-0.58,-0.30,-0.44,7.85,2040
16:34:35.738,20895,-0.42,-0.57,-0.07,7.15,2041
16:34:35.738,20905,-0.45,-0.90,0.12,10.10,2042
16:34:35.740,20915,-0.30,-0.96,0.18,10.21,2043
16:34:35.772,20925,-0.41,-0.95,0.09,10.36,2044
16:34:35.776,20935,-1.11,-0.83,0.11,13.94,2045
16:34:35.778,20945,-1.79,-0.85,0.26,20.01,2046
16:34:35.781,20955,-2.11,-0.52,0.25,21.86,2047
16:34:35.793,20965,-2.09,0.08,0.15,20.94,2048
16:34:35.802,20975,-1.56,0.51,-0.05,16.44,2049
16:34:35.812,20985,-1.03,-0.18,0.00,10.43,2050
16:34:35.827,20995,-0.65,-0.65,0.31,9.67,2051
16:34:35.831,21005,-0.66,-0.85,0.09,10.77,2052
16:34:35.842,21015,-0.65,-0.97,0.14,11.76,2053
16:34:35.859,21025,-0.46,-1.08,0.50,12.73,2054
16:34:35.860,21035,-0.56,-1.10,0.43,13.08,2055
16:34:35.874,21045,-0.66,-0.72,0.50,11.01,2056
16:34:35.887,21055,-0.57,-0.52,0.43,8.87,2057
16:34:35.890,21065,-0.80,-0.42,0.53,10.48,2058
16:34:35.900,21075,-1.02,-0.43,0.33,11.53,2059
16:34:35.916,21085,-0.86,-0.58,0.30,10.82,2060
16:34:35.921,21095,-0.77,-0.81,0.16,11.32,2061
16:34:35.932,21105,-0.62,-0.97,0.07,11.54,2062
16:34:35.972,21115,-0.49,-1.10,-0.05,12.09,2063
16:34:35.973,21125,-0.37,-1.14,-0.07,12.03,2064
16:34:35.974,21135,-0.32,-1.11,-0.11,11.63,2065
16:34:35.975,21145,-0.52,-0.93,0.02,10.66,2066
16:34:36.013,21155,-0.74,-0.78,0.11,10.81,2067
16:34:36.014,21165,-0.93,-0.66,0.18,11.51,2068
16:34:36.015,21175,-1.04,-0.53,0.20,11.86,2069
16:34:36.017,21185,-1.02,-0.41,0.29,11.38,2070
16:34:36.054,21195,-0.93,-0.38,0.27,10.41,2071
16:34:36.056,21205,-0.77,-0.57,0.18,9.76,2072
16:34:36.056,21215,-0.73,-0.71,0.09,10.16,2073
16:34:36.057,21225,-0.69,-0.84,0.06,10.89,2074
16:34:36.060,21235,-0.66,-0.88,0.01,11.02,2075
16:34:36.095,21245,-0.67,-0.83,-0.04,10.65,2076
16:34:36.096,21255,-0.70,-0.76,-0.04,10.36,2077
16:34:36.097,21265,-0.76,-0.66,-0.01,10.05,2078
16:34:36.100,21275,-0.83,-0.57,-0.00,10.05,2079
16:34:36.137,21285,-0.88,-0.52,-0.01,10.25,2080
16:34:36.137,21295,-0.90,-0.54,-0.03,10.55,2081
16:34:36.139,21305,-0.85,-0.60,-0.06,10.41,2082
16:34:36.140,21315,-0.81,-0.64,-0.11,10.37,2083
16:34:36.171,21325,-0.80,-0.66,-0.13,10.45,2084
16:34:36.172,21335,-0.80,-0.67,-0.12,10.52,2085
16:34:36.174,21345,-0.82,-0.65,-0.11,10.52,2086
16:34:36.193,21355,-0.82,-0.61,-0.08,10.30,2087
16:34:36.196,21365,-0.82,-0.57,-0.09,10.03,2088
16:34:36.204,21375,-0.84,-0.54,-0.11,10.07,2089
16:34:36.210,21385,-0.86,-0.55,-0.12,10.25,2090
16:34:36.221,21395,-0.82,-0.61,-0.12,10.31,2091
16:34:36.231,21405,-0.78,-0.67,-0.14,10.33,2092
16:34:36.242,21415,-0.73,-0.67,-0.16,10.05,2093
16:34:36.250,21425,-0.76,-0.63,-0.15,10.04,2094
16:34:36.260,21435,-0.79,-0.63,-0.09,10.14,2095
16:34:36.270,21445,-0.77,-0.64,0.02,10.03,2096
16:34:36.280,21455,-0.73,-0.72,0.04,10.22,2097
16:34:36.292,21465,-0.68,-0.77,0.02,10.27,2098
16:34:36.300,21475,-0.64,-0.78,0.06,10.14,2099
16:34:36.318,21485,-0.66,-0.80,0.11,10.44,2100
16:34:36.320,21495,-0.72,-0.74,0.19,10.52,2101
16:34:36.330,21505,-0.77,-0.66,0.25,10.49,2102
16:34:36.344,21515,-0.83,-0.60,0.27,10.57,2103
16:34:36.350,21525,-0.79,-0.62,0.26,10.35,2104
16:34:36.367,21535,-0.73,-0.64,0.20,9.96,2105
16:34:36.371,21545,-0.75,-0.60,0.15,9.75,2106
16:34:36.382,21555,-0.84,-0.55,0.13,10.13,2107
16:34:36.395,21565,-0.96,-0.50,0.08,10.83,2108
16:34:36.401,21575,-1.03,-0.47,0.03,11.32,2109
16:34:36.413,21585,-1.04,-0.45,-0.03,11.36,2110
16:34:36.420,21595,-1.10,-0.42,-0.09,11.82,2111
16:34:36.430,21605,-1.17,-0.43,-0.18,12.63,2112
16:34:36.440,21615,-1.28,-0.64,-0.15,14.36,2113
16:34:36.453,21625,-1.52,-0.68,-0.18,16.78,2114
16:34:36.460,21635,-1.71,-0.56,-0.23,18.11,2115
16:34:36.475,21645,-1.80,-0.38,-0.45,18.97,2116
16:34:36.484,21655,-1.71,-0.40,-0.62,18.59,2117
16:34:36.490,21665,-1.49,-0.75,-0.44,17.26,2118
16:34:36.504,21675,-1.41,-1.00,-0.11,17.32,2119
16:34:36.510,21685,-1.26,-1.18,-0.06,17.24,2120
16:34:36.520,21695,-0.89,-1.24,0.10,15.31,2121
16:34:36.538,21705,-0.60,-1.30,0.25,14.57,2122
16:34:36.540,21715,-0.49,-1.36,0.59,15.61,2123
16:34:36.554,21725,-0.49,-1.39,0.83,16.88,2124
16:34:36.562,21735,-0.56,-1.34,0.92,17.17,2125
16:34:36.574,21745,-0.70,-1.09,0.87,15.61,2126
16:34:36.580,21755,-0.67,-0.89,0.87,14.15,2127
16:34:36.621,21765,-0.29,-0.85,1.08,14.06,2128
16:34:36.621,21775,-0.12,-0.68,1.28,14.52,2129
16:34:36.624,21785,-0.14,-0.53,1.18,13.05,2130
16:34:36.628,21795,-0.20,-0.33,0.97,10.45,2131
16:34:36.629,21805,-0.24,-0.30,0.70,8.01,2132
16:34:36.647,21815,-0.28,-0.52,0.58,8.25,2133
16:34:36.655,21825,-0.28,-0.77,0.49,9.58,2134
16:34:36.665,21835,-0.23,-0.98,0.45,10.98,2135
16:34:36.704,21845,-0.04,-0.97,0.58,11.32,2136
16:34:36.704,21855,0.12,-0.92,0.56,10.80,2137
16:34:36.705,21865,0.19,-0.81,0.59,10.17,2138
16:34:36.706,21875,0.15,-0.65,0.61,9.03,2139
16:34:36.736,21885,0.04,-0.52,0.63,8.14,2140
16:34:36.736,21895,-0.06,-0.41,0.70,8.12,2141
16:34:36.737,21905,-0.12,-0.31,0.73,8.03,2142
16:34:36.740,21915,-0.15,-0.20,0.80,8.42,2143
16:34:36.777,21925,-0.15,-0.16,0.81,8.38,2144
16:34:36.785,21935,-0.20,-0.12,0.84,8.70,2145
16:34:36.819,21945,-0.15,-0.11,0.81,8.34,2146
16:34:36.819,21955,-0.06,-0.15,0.74,7.56,2147
16:34:36.821,21965,-0.18,-0.26,0.59,6.68,2148
16:34:36.822,21975,-0.32,-0.34,0.49,6.76,2149
16:34:36.824,21985,-0.32,-0.43,0.59,7.96,2150
16:34:36.859,21995,-0.30,-0.47,0.71,9.03,2151
16:34:36.862,22005,-0.29,-0.53,0.73,9.50,2152
16:34:36.862,22015,-0.37,-0.74,0.69,10.74,2153
16:34:36.862,22025,-0.39,-1.04,0.59,12.58,2154
16:34:36.864,22035,-0.43,-1.07,0.20,11.73,2155
16:34:36.897,22045,-0.57,-0.84,0.09,10.23,2156
16:34:36.897,22055,-0.78,-0.55,0.25,9.86,2157
16:34:36.899,22065,-0.91,-0.42,0.39,10.74,2158
16:34:36.900,22075,-1.05,-0.40,0.44,12.07,2159
16:34:36.910,22085,-1.02,-0.38,0.45,11.76,2160
16:34:36.921,22095,-0.68,-0.21,-0.09,7.14,2161
16:34:36.930,22105,-0.61,0.05,-0.83,10.32,2162
16:34:36.942,22115,-0.72,0.34,-1.06,13.23,2163
16:34:36.952,22125,-0.68,0.34,-1.33,15.36,2164
16:34:36.960,22135,-0.86,0.10,-1.16,14.46,2165
16:34:36.978,22145,-0.88,-0.25,-0.89,12.77,2166
16:34:36.981,22155,-0.53,-0.54,-0.23,7.90,2167
16:34:36.990,22165,-0.37,-0.59,-0.05,6.95,2168
16:34:37.004,22175,-0.28,-0.70,-0.07,7.58,2169
16:34:37.041,22185,-0.85,-0.89,-0.06,12.38,2170
16:34:37.051,22195,-1.71,-0.95,0.24,19.72,2171
16:34:37.053,22205,-2.13,-0.70,0.34,22.65,2172
16:34:37.053,22215,-2.13,-0.05,0.14,21.30,2173
16:34:37.054,22225,-1.48,0.35,-0.04,15.17,2174
16:34:37.060,22235,-0.98,0.10,-0.12,9.97,2175
16:34:37.070,22245,-0.60,-0.48,0.25,8.09,2176
16:34:37.081,22255,-0.39,-1.00,0.44,11.60,2177
16:34:37.096,22265,-0.16,-1.34,0.53,14.48,2178
16:34:37.100,22275,0.05,-1.30,0.49,13.89,2179
16:34:37.113,22285,0.05,-1.02,0.28,10.57,2180
16:34:37.124,22295,-0.39,-0.67,0.49,9.19,2181
16:34:37.134,22305,-0.80,-0.58,0.62,11.67,2182
16:34:37.144,22315,-1.27,-0.39,0.60,14.56,2183
16:34:37.153,22325,-1.31,-0.33,0.57,14.67,2184
16:34:37.162,22335,-1.28,-0.11,0.46,13.63,2185
16:34:37.171,22345,-0.83,-0.47,0.35,10.15,2186
16:34:37.188,22355,-0.55,-0.82,0.22,10.09,2187
16:34:37.190,22365,-0.40,-1.06,0.01,11.30,2188
16:34:37.202,22375,-0.33,-1.18,-0.12,12.28,2189
16:34:37.220,22385,-0.30,-1.22,-0.10,12.65,2190
16:34:37.236,22395,-0.46,-1.02,0.05,11.18,2191
16:34:37.236,22405,-0.58,-0.93,0.14,11.01,2192
16:34:37.246,22415,-0.67,-0.86,0.15,10.98,2193
16:34:37.254,22425,-0.80,-0.76,0.17,11.20,2194
16:34:37.261,22435,-0.90,-0.65,0.23,11.36,2195
16:34:37.271,22445,-0.94,-0.51,0.28,11.11,2196
16:34:37.281,22455,-0.94,-0.45,0.29,10.78,2197
16:34:37.292,22465,-0.82,-0.58,0.21,10.23,2198
16:34:37.302,22475,-0.75,-0.71,0.09,10.33,2199
16:34:37.313,22485,-0.67,-0.80,0.07,10.47,2200
16:34:37.323,22495,-0.64,-0.89,-0.02,10.97,2201
16:34:37.330,22505,-0.60,-0.94,-0.04,11.16,2202
16:34:37.340,22515,-0.61,-0.87,-0.02,10.61,2203
16:34:37.350,22525,-0.68,-0.75,0.00,10.07,2204
16:34:37.392,22535,-0.76,-0.64,0.04,9.95,2205
16:34:37.392,22545,-0.86,-0.53,0.05,10.18,2206
16:34:37.394,22555,-0.93,-0.49,0.06,10.47,2207
16:34:37.395,22565,-0.87,-0.56,0.04,10.37,2208
16:34:37.432,22575,-0.82,-0.62,-0.01,10.30,2209
16:34:37.436,22585,-0.75,-0.69,-0.02,10.19,2210
16:34:37.436,22595,-0.73,-0.72,-0.02,10.25,2211
16:34:37.437,22605,-0.75,-0.68,-0.01,10.08,2212
16:34:37.466,22615,-0.79,-0.62,0.01,10.05,2213
16:34:37.468,22625,-0.83,-0.57,0.01,10.02,2214
16:34:37.469,22635,-0.83,-0.56,0.02,9.99,2215
16:34:37.471,22645,-0.82,-0.56,-0.00,9.93,2216
16:34:37.500,22655,-0.81,-0.58,-0.04,9.98,2217
16:34:37.501,22665,-0.83,-0.59,-0.05,10.17,2218
16:34:37.505,22675,-0.84,-0.59,-0.05,10.32,2219
16:34:37.542,22685,-0.83,-0.61,0.02,10.26,2220
16:34:37.543,22695,-0.78,-0.60,0.05,9.86,2221
16:34:37.544,22705,-0.74,-0.60,0.06,9.51,2222
16:34:37.546,22715,-0.71,-0.65,0.05,9.66,2223
16:34:37.583,22725,-0.72,-0.65,0.07,9.72,2224
16:34:37.585,22735,-0.75,-0.71,0.09,10.35,2225
16:34:37.588,22745,-0.75,-0.74,0.10,10.58,2226
16:34:37.588,22755,-0.74,-0.71,0.12,10.28,2227
16:34:37.620,22765,-0.75,-0.70,0.15,10.39,2228
16:34:37.621,22775,-0.77,-0.67,0.13,10.28,2229
16:34:37.623,22785,-0.74,-0.66,0.10,10.00,2230
16:34:37.623,22795,-0.77,-0.62,0.09,9.94,2231
16:34:37.630,22805,-0.80,-0.61,0.06,10.13,2232
16:34:37.644,22815,-0.88,-0.60,0.04,10.66,2233
16:34:37.650,22825,-0.95,-0.56,0.02,11.05,2234
16:34:37.660,22835,-1.03,-0.50,-0.03,11.43,2235
16:34:37.674,22845,-1.08,-0.45,-0.06,11.73,2236
16:34:37.680,22855,-1.22,-0.41,-0.13,12.96,2237
16:34:37.692,22865,-1.16,-0.51,-0.15,12.81,2238
16:34:37.711,22875,-1.09,-0.56,0.13,12.31,2239
16:34:37.712,22885,-1.18,-0.68,0.18,13.74,2240
16:34:37.729,22895,-1.29,-0.70,0.22,14.79,2241
16:34:37.737,22905,-1.47,-0.64,0.08,16.03,2242
16:34:37.741,22915,-1.44,-0.53,-0.10,15.42,2243
16:34:37.803,22925,-1.34,-0.66,-0.24,15.12,2244
16:34:37.806,22935,-1.32,-0.99,-0.26,16.68,2245
16:34:37.807,22945,-1.16,-1.21,-0.12,16.80,2246
16:34:37.808,22955,-0.90,-1.29,0.03,15.73,2247
16:34:37.824,22965,-0.60,-1.29,0.21,14.34,2248
16:34:37.835,22975,-0.43,-1.27,0.40,13.97,2249
16:34:37.842,22985,-0.50,-1.24,0.51,14.32,2250
16:34:37.845,22995,-0.60,-1.15,0.77,15.07,2251
16:34:37.849,23005,-0.70,-1.12,0.91,16.09,2252
16:34:37.850,23015,-0.76,-0.99,0.95,15.68,2253
16:34:37.853,23025,-0.56,-0.85,0.85,13.26,2254
16:34:37.860,23035,-0.21,-0.75,1.08,13.28,2255
16:34:37.875,23045,0.01,-0.66,1.18,13.48,2256
16:34:37.880,23055,-0.03,-0.43,1.05,11.40,2257
16:34:37.920,23065,-0.26,-0.23,0.75,8.30,2258
16:34:37.921,23075,-0.49,-0.22,0.55,7.68,2259
16:34:37.922,23085,-0.51,-0.49,0.47,8.51,2260
16:34:37.925,23095,-0.46,-0.77,0.36,9.68,2261
16:34:37.929,23105,-0.22,-0.86,0.56,10.56,2262
16:34:37.941,23115,-0.03,-0.94,0.61,11.22,2263
16:34:37.950,23125,0.14,-0.90,0.56,10.66,2264
16:34:37.966,23135,0.21,-0.82,0.55,10.12,2265
16:34:37.971,23145,0.07,-0.69,0.64,9.42,2266
16:34:37.983,23155,-0.08,-0.53,0.72,8.96,2267
16:34:37.990,23165,-0.17,-0.41,0.74,8.62,2268
16:34:38.000,23175,-0.28,-0.32,0.72,8.39,2269
16:34:38.014,23185,-0.29,-0.26,0.77,8.63,2270
16:34:38.025,23195,-0.21,-0.23,0.85,9.06,2271
16:34:38.045,23205,-0.16,-0.27,0.85,9.10,2272
16:34:38.046,23215,-0.13,-0.35,0.70,7.88,2273
16:34:38.050,23225,-0.19,-0.40,0.59,7.38,2274
16:34:38.066,23235,-0.24,-0.44,0.60,7.77,2275
16:34:38.070,23245,-0.31,-0.43,0.62,8.21,2276
16:34:38.080,23255,-0.35,-0.41,0.68,8.68,2277
16:34:38.122,23265,-0.31,-0.44,0.73,9.00,2278
16:34:38.122,23275,-0.27,-0.48,0.64,8.44,2279
16:34:38.122,23285,-0.29,-0.63,0.60,9.16,2280
16:34:38.124,23295,-0.42,-0.81,0.59,10.88,2281
16:34:38.161,23305,-0.48,-0.80,0.55,10.80,2282
16:34:38.163,23315,-0.55,-0.68,0.49,10.04,2283
16:34:38.164,23325,-0.66,-0.53,0.37,9.26,2284
16:34:38.165,23335,-0.76,-0.40,0.35,9.29,2285
16:34:38.204,23345,-0.93,-0.37,0.32,10.45,2286
16:34:38.204,23355,-0.96,-0.48,0.45,11.63,2287
16:34:38.205,23365,-0.80,-0.73,0.37,11.46,2288
16:34:38.206,23375,-0.62,-0.78,-0.06,10.02,2289
16:34:38.240,23385,-0.50,-0.53,-0.61,9.49,2290
16:34:38.241,23395,-0.68,-0.13,-0.75,10.23,2291
16:34:38.242,23405,-0.71,-0.05,-0.84,11.01,2292
16:34:38.244,23415,-0.94,0.30,-1.03,14.25,2293
16:34:38.282,23425,-0.76,0.32,-1.20,14.61,2294
16:34:38.282,23435,-0.69,-0.03,-0.76,10.29,2295
16:34:38.284,23445,-0.58,-0.29,-0.36,7.42,2296
16:34:38.284,23455,-0.63,-0.31,-0.15,7.18,2297
16:34:38.320,23465,-0.48,-0.71,-0.09,8.62,2298
16:34:38.321,23475,-0.45,-0.73,-0.14,8.66,2299
16:34:38.322,23485,-0.73,-0.82,-0.04,10.94,2300
16:34:38.335,23495,-1.20,-1.00,0.07,15.64,2301
16:34:38.336,23505,-1.53,-1.05,0.08,18.61,2302
16:34:38.341,23515,-1.67,-0.62,-0.07,17.85,2303
16:34:38.355,23525,-1.69,-0.16,-0.02,16.97,2304
16:34:38.360,23535,-1.63,0.11,0.07,16.39,2305
16:34:38.371,23545,-1.51,0.13,0.26,15.39,2306
16:34:38.381,23555,-1.18,-0.24,0.09,12.04,2307
16:34:38.397,23565,-0.67,-0.73,0.15,10.03,2308
16:34:38.400,23575,-0.37,-1.04,0.29,11.40,2309
16:34:38.418,23585,-0.22,-1.13,0.11,11.55,2310
16:34:38.420,23595,-0.23,-0.98,0.35,10.63,2311
16:34:38.431,23605,-0.37,-0.48,0.40,7.28,2312
16:34:38.441,23615,-0.74,-0.48,0.51,10.21,2313
16:34:38.451,23625,-1.03,-0.41,0.53,12.27,2314
16:34:38.463,23635,-1.16,-0.46,0.49,13.37,2315
16:34:38.470,23645,-1.01,-0.68,0.36,12.71,2316
16:34:38.486,23655,-0.63,-0.94,0.22,11.52,2317
16:34:38.490,23665,-0.41,-1.10,0.04,11.71,2318
16:34:38.500,23675,-0.28,-1.12,-0.11,11.61,2319
16:34:38.510,23685,-0.33,-1.09,-0.18,11.51,2320
16:34:38.526,23695,-0.51,-0.92,-0.04,10.52,2321
16:34:38.532,23705,-0.64,-0.85,0.09,10.65,2322
16:34:38.547,23715,-0.75,-0.78,0.16,10.98,2323
16:34:38.550,23725,-0.83,-0.69,0.19,10.97,2324
16:34:38.565,23735,-0.89,-0.59,0.22,10.90,2325
16:34:38.577,23745,-0.90,-0.57,0.25,10.88,2326
16:34:38.581,23755,-0.81,-0.64,0.24,10.58,2327
16:34:38.594,23765,-0.73,-0.72,0.17,10.43,2328
16:34:38.601,23775,-0.72,-0.71,0.15,10.23,2329
16:34:38.614,23785,-0.74,-0.70,0.11,10.23,2330
16:34:38.621,23795,-0.74,-0.68,0.08,10.09,2331
16:34:38.631,23805,-0.74,-0.68,0.03,10.04,2332
16:34:38.641,23815,-0.73,-0.68,0.03,9.98,2333
16:34:38.657,23825,-0.72,-0.67,0.04,9.85,2334
16:34:38.660,23835,-0.73,-0.66,0.03,9.84,2335
16:34:38.673,23845,-0.75,-0.66,0.01,9.97,2336
16:34:38.681,23855,-0.77,-0.66,0.05,10.16,2337
16:34:38.691,23865,-0.81,-0.65,0.07,10.40,2338
16:34:38.700,23875,-0.81,-0.63,0.07,10.30,2339
16:34:38.709,23885,-0.81,-0.61,0.08,10.20,2340
16:34:38.742,23895,-0.79,-0.61,0.07,10.01,2341
16:34:38.742,23905,-0.79,-0.61,0.05,9.96,2342
16:34:38.743,23915,-0.78,-0.62,0.05,9.99,2343
16:34:38.754,23925,-0.79,-0.65,0.06,10.20,2344
16:34:38.765,23935,-0.81,-0.63,0.07,10.32,2345
16:34:38.774,23945,-0.83,-0.61,0.04,10.34,2346
16:34:38.782,23955,-0.87,-0.58,0.00,10.47,2347
16:34:38.791,23965,-0.91,-0.54,-0.00,10.58,2348
16:34:38.800,23975,-0.92,-0.50,-0.01,10.52,2349
16:34:38.810,23985,-0.91,-0.52,-0.04,10.51,2350
16:34:38.851,23995,-0.85,-0.56,-0.06,10.16,2351
16:34:38.851,24005,-0.76,-0.67,-0.06,10.14,2352
16:34:38.852,24015,-0.70,-0.71,-0.13,10.04,2353
16:34:38.855,24025,-0.69,-0.66,-0.19,9.77,2354
16:34:38.892,24035,-0.71,-0.69,-0.14,9.99,2355
16:34:38.892,24045,-0.76,-0.70,-0.06,10.39,2356
16:34:38.894,24055,-0.74,-0.76,-0.02,10.60,2357
16:34:38.894,24065,-0.70,-0.72,0.02,10.06,2358
16:34:38.933,24075,-0.70,-0.66,0.09,9.68,2359
16:34:38.933,24085,-0.75,-0.60,0.16,9.74,2360
16:34:38.935,24095,-0.84,-0.58,0.20,10.40,2361
16:34:38.936,24105,-0.91,-0.55,0.22,10.82,2362
16:34:38.967,24115,-0.95,-0.53,0.21,11.05,2363
16:34:38.967,24125,-0.95,-0.54,0.10,11.00,2364
16:34:38.969,24135,-0.99,-0.51,0.03,11.11,2365
16:34:38.970,24145,-1.10,-0.66,-0.08,12.85,2366
16:34:39.001,24155,-1.22,-0.86,0.06,14.88,2367
16:34:39.001,24165,-1.56,-0.76,-0.04,17.32,2368
16:34:39.003,24175,-1.53,-0.54,-0.04,16.19,2369
16:34:39.042,24185,-1.64,-0.49,-0.36,17.48,2370
16:34:39.045,24195,-1.71,-0.61,-0.50,18.81,2371
16:34:39.046,24205,-1.77,-0.80,-0.19,19.51,2372
16:34:39.046,24215,-1.70,-0.84,-0.03,18.98,2373
16:34:39.056,24225,-1.30,-0.87,-0.05,15.63,2374
16:34:39.061,24235,-0.91,-1.01,0.01,13.59,2375
16:34:39.076,24245,-0.64,-1.17,0.23,13.52,2376
16:34:39.083,24255,-0.48,-1.27,0.76,15.56,2377
16:34:39.092,24265,-0.43,-1.38,1.00,17.57,2378
16:34:39.102,24275,-0.62,-1.30,0.83,16.63,2379
16:34:39.119,24285,-0.57,-0.97,0.86,14.15,2380
16:34:39.120,24295,-0.39,-0.78,1.08,13.83,2381
16:34:39.135,24305,-0.26,-0.62,1.38,15.35,2382
16:34:39.140,24315,-0.25,-0.43,1.40,14.85,2383
16:34:39.153,24325,-0.42,-0.24,1.09,11.93,2384
16:34:39.163,24335,-0.53,-0.12,0.85,10.08,2385
16:34:39.170,24345,-0.48,-0.27,0.65,8.54,2386
16:34:39.181,24355,-0.40,-0.59,0.57,9.17,2387
16:34:39.219,24365,-0.26,-0.85,0.52,10.33,2388
16:34:39.219,24375,-0.05,-0.95,0.55,10.97,2389
16:34:39.221,24385,0.13,-0.87,0.57,10.49,2390
16:34:39.222,24395,0.21,-0.74,0.56,9.53,2391
16:34:39.230,24405,0.04,-0.58,0.59,8.32,2392
16:34:39.243,24415,-0.09,-0.49,0.64,8.17,2393
16:34:39.253,24425,-0.18,-0.41,0.73,8.61,2394
16:34:39.263,24435,-0.26,-0.30,0.76,8.60,2395
16:34:39.273,24445,-0.28,-0.23,0.74,8.25,2396
16:34:39.282,24455,-0.18,-0.18,0.74,7.86,2397
16:34:39.293,24465,-0.04,-0.25,0.73,7.76,2398
16:34:39.311,24475,-0.02,-0.32,0.64,7.21,2399
16:34:39.319,24485,-0.13,-0.36,0.56,6.78,2400
16:34:39.327,24495,-0.28,-0.34,0.53,6.95,2401
16:34:39.333,24505,-0.36,-0.33,0.58,7.56,2402
16:34:39.340,24515,-0.42,-0.31,0.63,8.20,2403
16:34:39.351,24525,-0.41,-0.30,0.69,8.54,2404
16:34:39.366,24535,-0.36,-0.28,0.75,8.81,2405
16:34:39.370,24545,-0.39,-0.46,0.76,9.70,2406
16:34:39.380,24555,-0.48,-0.71,0.65,10.78,2407
16:34:39.390,24565,-0.57,-0.86,0.45,11.23,2408
16:34:39.405,24575,-0.53,-0.74,0.22,9.37,2409
16:34:39.410,24585,-0.58,-0.73,0.16,9.41,2410
16:34:39.420,24595,-0.64,-0.67,0.18,9.46,2411
16:34:39.431,24605,-0.75,-0.68,0.18,10.28,2412
16:34:39.441,24615,-0.81,-0.69,0.24,10.87,2413
16:34:39.453,24625,-0.65,-0.58,0.26,9.11,2414
16:34:39.462,24635,-0.56,-0.38,-0.16,6.91,2415
16:34:39.470,24645,-0.61,-0.00,-0.63,8.78,2416
16:34:39.485,24655,-0.76,0.20,-0.92,12.08,2417
16:34:39.490,24665,-0.83,0.23,-0.82,11.86,2418
16:34:39.502,24675,-0.96,0.13,-0.67,11.83,2419
16:34:39.511,24685,-0.89,0.02,-0.55,10.43,2420
16:34:39.529,24695,-0.70,-0.20,-0.31,7.93,2421
16:34:39.534,24705,-0.54,-0.43,-0.08,6.96,2422
16:34:39.547,24715,-0.63,-0.70,-0.01,9.46,2423
16:34:39.549,24725,-0.66,-0.93,-0.05,11.43,2424
16:34:39.560,24735,-0.93,-0.94,-0.02,13.26,2425
16:34:39.573,24745,-1.44,-0.79,-0.00,16.44,2426
16:34:39.580,24755,-1.81,-0.44,0.05,18.60,2427
16:34:39.685,24765,-1.81,-0.05,-0.09,18.11,2428
16:34:39.685,24775,-1.71,0.32,-0.30,17.67,2429
16:34:39.687,24785,-1.51,0.20,-0.16,15.35,2430
16:34:39.688,24795,-0.93,-1.01,-0.20,13.83,2431
16:34:39.689,24805,-0.57,-0.89,0.37,11.25,2432
16:34:39.726,24815,-0.43,-0.98,0.09,10.74,2433
16:34:39.726,24825,-0.29,-0.92,0.19,9.88,2434
16:34:39.729,24835,-0.40,-0.85,0.43,10.30,2435
16:34:39.729,24845,-0.77,-0.70,0.38,11.09,2436
16:34:39.729,24855,-0.80,-0.57,0.52,11.16,2437
16:34:39.729,24865,-0.80,-0.44,0.70,11.51,2438
16:34:39.732,24875,-1.04,-0.31,0.53,12.06,2439
16:34:39.764,24885,-1.14,-0.19,0.38,12.18,2440
16:34:39.765,24895,-0.92,-0.50,0.26,10.84,2441
16:34:39.765,24905,-0.73,-0.86,0.18,11.43,2442
16:34:39.766,24915,-0.56,-1.08,0.10,12.18,2443
16:34:39.767,24925,-0.41,-1.20,0.00,12.68,2444
16:34:39.768,24935,-0.28,-1.23,-0.06,12.65,2445
16:34:39.806,24945,-0.22,-1.18,-0.10,12.06,2446
16:34:39.806,24955,-0.42,-0.92,0.00,10.12,2447
16:34:39.806,24965,-0.60,-0.82,0.13,10.22,2448
16:34:39.808,24975,-0.83,-0.73,0.18,11.21,2449
16:34:39.810,24985,-0.99,-0.58,0.26,11.80,2450
16:34:39.821,24995,-1.09,-0.45,0.33,12.22,2451
16:34:39.839,25005,-1.07,-0.31,0.40,11.85,2452
16:34:39.840,25015,-0.95,-0.29,0.36,10.59,2453
16:34:39.853,25025,-0.82,-0.54,0.27,10.16,2454
16:34:39.860,25035,-0.68,-0.78,0.20,10.51,2455
16:34:39.876,25045,-0.59,-0.90,0.12,10.84,2456
16:34:39.881,25055,-0.52,-0.97,0.05,11.07,2457
16:34:39.892,25065,-0.57,-0.90,0.02,10.63,2458
16:34:39.902,25075,-0.72,-0.72,0.06,10.18,2459
16:34:39.910,25085,-0.82,-0.64,0.09,10.46,2460
16:34:39.920,25095,-0.89,-0.57,0.10,10.62,2461
16:34:39.933,25105,-0.87,-0.54,0.07,10.26,2462
16:34:39.940,25115,-0.76,-0.63,0.00,9.88,2463
16:34:39.955,25125,-0.71,-0.71,-0.04,10.06,2464
16:34:39.960,25135,-0.70,-0.81,-0.07,10.69,2465
16:34:39.970,25145,-0.70,-0.80,-0.07,10.59,2466
16:34:39.983,25155,-0.73,-0.72,-0.06,10.26,2467
16:34:39.994,25165,-0.77,-0.63,-0.06,9.97,2468
16:34:40.022,25175,-0.81,-0.58,-0.05,9.96,2469
16:34:40.023,25185,-0.83,-0.59,-0.05,10.16,2470
16:34:40.024,25195,-0.83,-0.61,-0.07,10.37,2471
16:34:40.034,25205,-0.79,-0.68,-0.08,10.44,2472
16:34:40.045,25215,-0.74,-0.72,-0.06,10.40,2473
16:34:40.054,25225,-0.74,-0.68,-0.06,10.08,2474
16:34:40.062,25235,-0.78,-0.61,-0.05,9.90,2475
16:34:40.070,25245,-0.81,-0.57,-0.01,9.90,2476
16:34:40.082,25255,-0.83,-0.59,0.03,10.18,2477
16:34:40.097,25265,-0.79,-0.66,0.03,10.29,2478
16:34:40.100,25275,-0.71,-0.73,0.06,10.23,2479
16:34:40.112,25285,-0.68,-0.75,0.09,10.18,2480
16:34:40.128,25295,-0.72,-0.66,0.13,9.89,2481
16:34:40.130,25305,-0.77,-0.61,0.20,10.08,2482
16:34:40.141,25315,-0.79,-0.61,0.21,10.21,2483
16:34:40.151,25325,-0.81,-0.58,0.19,10.16,2484
16:34:40.161,25335,-0.88,-0.53,0.20,10.49,2485
16:34:40.173,25345,-0.94,-0.50,0.19,10.80,2486
16:34:40.180,25355,-0.91,-0.51,0.12,10.55,2487
16:34:40.193,25365,-0.86,-0.59,0.02,10.41,2488
16:34:40.203,25375,-0.86,-0.62,0.00,10.62,2489
16:34:40.212,25385,-0.93,-0.59,-0.02,11.04,2490
16:34:40.220,25395,-1.01,-0.53,-0.05,11.44,2491
16:34:40.235,25405,-1.07,-0.52,-0.06,11.91,2492
16:34:40.241,25415,-1.11,-0.66,-0.09,12.97,2493
16:34:40.258,25425,-1.24,-0.77,-0.11,14.67,2494
16:34:40.265,25435,-1.41,-0.66,-0.15,15.62,2495
16:34:40.275,25445,-1.54,-0.54,-0.31,16.65,2496
16:34:40.317,25455,-1.53,-0.48,-0.53,16.92,2497
16:34:40.318,25465,-1.61,-0.48,-0.54,17.70,2498
16:34:40.357,25475,-1.57,-0.64,-0.38,17.39,2499
16:34:40.359,25485,-1.51,-0.73,-0.11,16.78,2500
16:34:40.395,25495,-1.33,-0.89,-0.07,16.04,2501
16:34:40.396,25505,-0.97,-1.03,0.02,14.20,2502
16:34:40.397,25515,-0.73,-1.17,0.08,13.79,2503
16:34:40.398,25525,-0.52,-1.22,0.40,13.89,2504
16:34:40.399,25535,-0.43,-1.33,0.74,15.83,2505
16:34:40.401,25545,-0.51,-1.32,0.90,16.76,2506
16:34:40.438,25555,-0.59,-1.16,1.13,17.25,2507
16:34:40.438,25565,-0.76,-0.99,0.73,14.45,2508
16:34:40.441,25575,-0.53,-0.90,0.81,13.21,2509
16:34:40.443,25585,-0.12,-0.74,1.23,14.46,2510
16:34:40.443,25595,0.02,-0.73,1.30,14.93,2511
16:34:40.443,25605,-0.09,-0.61,1.05,12.20,2512
16:34:40.443,25615,-0.28,-0.46,0.72,8.96,2513
16:34:40.480,25625,-0.38,-0.56,0.58,8.91,2514
16:34:40.481,25635,-0.40,-0.80,0.53,10.39,2515
16:34:40.482,25645,-0.38,-0.97,0.44,11.31,2516
16:34:40.483,25655,-0.17,-0.92,0.65,11.39,2517
16:34:40.505,25665,0.00,-0.88,0.63,10.85,2518
16:34:40.521,25675,0.16,-0.74,0.63,9.88,2519
16:34:40.526,25685,0.12,-0.62,0.67,9.18,2520
16:34:40.528,25695,0.01,-0.49,0.72,8.75,2521
16:34:40.530,25705,-0.06,-0.36,0.77,8.53,2522
16:34:40.545,25715,-0.14,-0.27,0.76,8.18,2523
16:34:40.550,25725,-0.21,-0.16,0.77,8.12,2524
16:34:40.562,25735,-0.26,-0.12,0.78,8.31,2525
16:34:40.570,25745,-0.17,-0.18,0.76,8.04,2526
16:34:40.586,25755,-0.07,-0.28,0.75,8.02,2527
16:34:40.590,25765,-0.04,-0.26,0.68,7.29,2528
16:34:40.605,25775,-0.18,-0.26,0.59,6.66,2529
16:34:40.611,25785,-0.30,-0.31,0.50,6.63,2530
16:34:40.624,25795,-0.35,-0.38,0.55,7.55,2531
16:34:40.633,25805,-0.35,-0.40,0.69,8.72,2532
16:34:40.640,25815,-0.43,-0.47,0.71,9.54,2533
16:34:40.652,25825,-0.62,-0.71,0.66,11.46,2534
16:34:40.663,25835,-0.59,-0.90,0.59,12.27,2535
16:34:40.672,25845,-0.39,-0.92,0.54,11.33,2536
16:34:40.684,25855,-0.30,-0.59,0.48,8.17,2537
16:34:40.695,25865,-0.40,-0.42,0.45,7.29,2538
16:34:40.703,25875,-0.63,-0.34,0.33,7.85,2539
16:34:40.714,25885,-0.92,-0.36,0.19,10.08,2540
16:34:40.723,25895,-1.08,-0.61,0.39,12.94,2541
16:34:40.733,25905,-0.63,-0.84,0.64,12.24,2542
16:34:40.741,25915,-0.44,-0.83,0.21,9.61,2543
16:34:40.756,25925,-0.58,-0.39,-0.17,7.20,2544
16:34:40.761,25935,-0.61,-0.21,-1.06,12.40,2545
16:34:40.777,25945,-0.61,-0.16,-0.96,11.48,2546
16:34:40.781,25955,-0.65,0.10,-1.13,13.10,2547
16:34:40.790,25965,-0.69,-0.10,-1.17,13.64,2548
16:34:40.802,25975,-0.65,-0.35,-0.73,10.40,2549
16:34:40.813,25985,-0.54,-0.47,-0.33,7.85,2550
16:34:40.822,25995,-0.49,-0.34,0.02,5.96,2551
16:34:40.832,26005,-0.69,-0.74,-0.06,10.12,2552
16:34:40.851,26015,-1.25,-0.93,0.13,15.66,2553
16:34:40.852,26025,-1.81,-0.99,0.25,20.73,2554
16:34:40.864,26035,-2.04,-0.48,0.20,21.07,2555
16:34:40.874,26045,-1.77,0.13,-0.04,17.76,2556
16:34:40.881,26055,-1.51,0.37,-0.13,15.55,2557
16:34:40.892,26065,-1.48,0.34,0.00,15.21,2558
16:34:40.912,26075,-0.91,-0.65,0.14,11.23,2559
16:34:40.912,26085,-0.46,-1.16,0.22,12.70,2560
16:34:40.942,26095,-0.21,-1.15,0.13,11.80,2561
16:34:40.944,26105,0.06,-1.09,0.33,11.40,2562
16:34:40.945,26115,-0.37,-0.66,0.30,8.15,2563
16:34:40.950,26125,-0.70,-0.57,0.45,10.07,2564
16:34:40.965,26135,-0.96,-0.45,0.50,11.75,2565
16:34:40.975,26145,-1.10,-0.32,0.49,12.47,2566
16:34:40.982,26155,-1.10,-0.38,0.38,12.24,2567
16:34:40.990,26165,-0.80,-0.70,0.28,10.97,2568
16:34:41.002,26175,-0.59,-0.99,0.13,11.59,2569
16:34:41.012,26185,-0.42,-1.16,-0.04,12.37,2570
16:34:41.028,26195,-0.37,-1.07,-0.09,11.34,2571
16:34:41.032,26205,-0.50,-0.91,-0.11,10.42,2572
16:34:41.041,26215,-0.65,-0.78,0.05,10.19,2573
16:34:41.051,26225,-0.76,-0.74,0.05,10.58,2574
16:34:41.061,26235,-0.82,-0.70,0.09,10.79,2575
16:34:41.071,26245,-0.86,-0.69,0.16,11.11,2576
16:34:41.087,26255,-0.89,-0.64,0.21,11.17,2577
16:34:41.090,26265,-0.88,-0.57,0.24,10.79,2578
16:34:41.143,26275,-0.83,-0.59,0.26,10.54,2579
16:34:41.143,26285,-0.74,-0.67,0.21,10.19,2580
16:34:41.143,26295,-0.71,-0.72,0.15,10.23,2581
16:34:41.145,26305,-0.70,-0.74,0.13,10.25,2582
16:34:41.147,26315,-0.66,-0.80,0.04,10.43,2583
16:34:41.183,26325,-0.64,-0.83,0.01,10.48,2584
16:34:41.184,26335,-0.69,-0.78,-0.00,10.37,2585
16:34:41.189,26345,-0.73,-0.71,-0.01,10.22,2586
16:34:41.190,26355,-0.79,-0.66,-0.03,10.27,2587
16:34:41.224,26365,-0.83,-0.57,-0.00,10.11,2588
16:34:41.224,26375,-0.84,-0.59,0.00,10.28,2589
16:34:41.226,26385,-0.81,-0.62,-0.01,10.18,2590
16:34:41.229,26395,-0.78,-0.63,-0.02,10.09,2591
16:34:41.229,26405,-0.78,-0.65,-0.03,10.13,2592
16:34:41.267,26415,-0.77,-0.65,0.00,10.11,2593
16:34:41.267,26425,-0.78,-0.65,0.02,10.19,2594
16:34:41.267,26435,-0.79,-0.63,0.01,10.06,2595
16:34:41.271,26445,-0.81,-0.61,0.00,10.12,2596
16:34:41.303,26455,-0.83,-0.58,-0.02,10.16,2597
16:34:41.303,26465,-0.87,-0.55,-0.03,10.32,2598
16:34:41.312,26475,-0.89,-0.55,-0.03,10.51,2599
16:34:41.340,26485,-0.92,-0.55,-0.06,10.68,2600
16:34:41.340,26495,-0.95,-0.51,-0.08,10.77,2601
16:34:41.342,26505,-0.95,-0.48,-0.11,10.73,2602
16:34:41.343,26515,-0.89,-0.51,-0.14,10.36,2603
16:34:41.359,26525,-0.82,-0.57,-0.14,10.07,2604
16:34:41.360,26535,-0.78,-0.67,-0.18,10.43,2605
16:34:41.373,26545,-0.75,-0.66,-0.12,10.08,2606
16:34:41.381,26555,-0.81,-0.63,-0.16,10.42,2607
16:34:41.395,26565,-0.75,-0.65,-0.08,9.95,2608
16:34:41.400,26575,-0.76,-0.68,0.00,10.22,2609
16:34:41.411,26585,-0.77,-0.70,0.02,10.42,2610
16:34:41.427,26595,-0.76,-0.68,0.02,10.23,2611
16:34:41.430,26605,-0.79,-0.65,0.08,10.23,2612
16:34:41.442,26615,-0.87,-0.61,0.10,10.68,2613
16:34:41.457,26625,-1.01,-0.52,0.19,11.49,2614
16:34:41.461,26635,-1.05,-0.49,0.17,11.67,2615
16:34:41.472,26645,-1.05,-0.50,0.13,11.68,2616
16:34:41.481,26655,-0.99,-0.68,0.03,12.02,2617
16:34:41.493,26665,-1.05,-0.88,0.07,13.75,2618
16:34:41.501,26675,-1.39,-0.81,0.06,16.09,2619
16:34:41.518,26685,-1.51,-0.58,-0.06,16.15,2620
16:34:41.533,26695,-1.52,-0.39,-0.24,15.93,2621
16:34:41.539,26705,-1.63,-0.42,-0.44,17.36,2622
16:34:41.540,26715,-1.70,-0.58,-0.43,18.48,2623
16:34:41.572,26725,-1.67,-0.77,-0.17,18.53,2624
16:34:41.590,26735,-1.54,-0.88,-0.15,17.79,2625
16:34:41.592,26745,-1.11,-0.98,-0.10,14.85,2626
16:34:41.593,26755,-0.81,-1.08,0.06,13.55,2627
16:34:41.596,26765,-0.63,-1.14,0.30,13.34,2628
16:34:41.599,26775,-0.49,-1.26,0.60,14.77,2629
16:34:41.610,26785,-0.54,-1.30,0.79,16.15,2630
16:34:41.622,26795,-0.59,-1.19,0.84,15.71,2631
16:34:41.630,26805,-0.59,-0.95,0.85,14.08,2632
16:34:41.640,26815,-0.36,-0.78,1.08,13.79,2633
16:34:41.659,26825,-0.23,-0.62,1.44,15.84,2634
16:34:41.668,26835,-0.31,-0.45,1.37,14.76,2635
16:34:41.675,26845,-0.39,-0.22,1.07,11.56,2636
16:34:41.681,26855,-0.45,-0.12,0.78,9.13,2637
16:34:41.694,26865,-0.44,-0.26,0.57,7.66,2638
16:34:41.703,26875,-0.39,-0.61,0.56,9.16,2639
16:34:41.715,26885,-0.28,-0.88,0.55,10.79,2640
16:34:41.721,26895,-0.08,-0.91,0.58,10.80,2641
16:34:41.730,26905,0.11,-0.88,0.64,10.97,2642
16:34:41.740,26915,0.16,-0.71,0.60,9.36,2643
16:34:41.756,26925,0.02,-0.51,0.60,7.91,2644
16:34:41.760,26935,-0.14,-0.41,0.65,7.80,2645
16:34:41.779,26945,-0.26,-0.36,0.71,8.37,2646
16:34:41.780,26955,-0.37,-0.29,0.75,8.83,2647
16:34:41.855,26965,-0.30,-0.18,0.86,9.23,2648
16:34:41.856,26975,-0.11,-0.19,0.82,8.51,2649
16:34:41.856,26985,-0.02,-0.23,0.65,6.92,2650
16:34:41.857,26995,-0.01,-0.30,0.54,6.18,2651
16:34:41.859,27005,-0.09,-0.35,0.60,6.99,2652
16:34:41.860,27015,-0.22,-0.41,0.62,7.75,2653
16:34:41.886,27025,-0.31,-0.47,0.68,8.79,2654
16:34:41.887,27035,-0.38,-0.46,0.68,9.02,2655
16:34:41.890,27045,-0.39,-0.41,0.71,9.09,2656
16:34:41.891,27055,-0.43,-0.50,0.74,9.91,2657
16:34:41.891,27065,-0.43,-0.61,0.60,9.54,2658
16:34:41.929,27075,-0.55,-0.68,0.36,9.47,2659
16:34:41.929,27085,-0.67,-0.78,0.29,10.72,2660
16:34:41.930,27095,-0.71,-0.77,0.26,10.83,2661
16:34:41.931,27105,-0.64,-0.78,0.24,10.36,2662
16:34:41.969,27115,-0.75,-0.72,0.19,10.61,2663
16:34:41.970,27125,-0.82,-0.61,0.22,10.43,2664
16:34:41.972,27135,-0.67,-0.40,0.16,8.00,2665
16:34:41.973,27145,-0.59,-0.13,-0.40,7.20,2666
16:34:42.011,27155,-0.58,0.22,-0.86,10.58,2667
16:34:42.011,27165,-0.79,0.34,-1.42,16.60,2668
16:34:42.013,27175,-0.82,0.29,-1.04,13.52,2669
16:34:42.014,27185,-0.80,0.09,-0.73,10.81,2670
16:34:42.026,27195,-0.66,-0.21,-0.30,7.52,2671
16:34:42.030,27205,-0.53,-0.44,0.01,6.88,2672
16:34:42.044,27215,-0.60,-0.81,0.15,10.19,2673
16:34:42.054,27225,-0.56,-0.85,0.18,10.33,2674
16:34:42.064,27235,-0.88,-0.87,0.02,12.38,2675
16:34:42.073,27245,-1.44,-0.76,0.06,16.33,2676
16:34:42.082,27255,-1.89,-0.52,0.14,19.68,2677
16:34:42.090,27265,-1.97,-0.17,0.19,19.85,2678
16:34:42.107,27275,-1.85,0.15,0.10,18.59,2679
16:34:42.111,27285,-1.57,0.40,0.05,16.19,2680
16:34:42.121,27295,-0.92,-0.30,0.12,9.75,2681
16:34:42.134,27305,-0.58,-0.71,0.17,9.26,2682
16:34:42.140,27315,-0.51,-0.84,0.15,9.90,2683
16:34:42.151,27325,-0.47,-1.14,0.13,12.45,2684
16:34:42.160,27335,-0.44,-1.15,0.35,12.78,2685
16:34:42.170,27345,-0.57,-0.99,0.39,12.09,2686
16:34:42.184,27355,-0.60,-0.74,0.42,10.40,2687
16:34:42.190,27365,-0.72,-0.55,0.45,10.11,2688
16:34:42.206,27375,-0.84,-0.44,0.33,10.03,2689
16:34:42.210,27385,-0.95,-0.45,0.26,10.85,2690
16:34:42.224,27395,-0.92,-0.61,0.20,11.24,2691
16:34:42.230,27405,-0.84,-0.76,0.15,11.49,2692
16:34:42.241,27415,-0.70,-0.90,0.10,11.41,2693
16:34:42.250,27425,-0.56,-0.97,0.01,11.17,2694
16:34:42.263,27435,-0.45,-0.98,-0.06,10.82,2695
16:34:42.274,27445,-0.45,-0.89,-0.07,10.03,2696
16:34:42.281,27455,-0.59,-0.82,0.06,10.12,2697
16:34:42.292,27465,-0.73,-0.74,0.14,10.55,2698
16:34:42.302,27475,-0.83,-0.67,0.18,10.88,2699
16:34:42.310,27485,-0.91,-0.62,0.21,11.21,2700
16:34:42.326,27495,-0.93,-0.56,0.23,11.12,2701
16:34:42.330,27505,-0.89,-0.50,0.21,10.44,2702
16:34:42.341,27515,-0.80,-0.59,0.16,10.05,2703
16:34:42.355,27525,-0.74,-0.67,0.10,10.00,2704
16:34:42.361,27535,-0.70,-0.75,0.03,10.27,2705
16:34:42.373,27545,-0.66,-0.82,-0.04,10.47,2706
16:34:42.381,27555,-0.64,-0.85,-0.06,10.70,2707
16:34:42.392,27565,-0.67,-0.81,-0.05,10.52,2708
16:34:42.401,27575,-0.71,-0.73,-0.03,10.22,2709
16:34:42.419,27585,-0.77,-0.64,0.00,10.07,2710
16:34:42.420,27595,-0.82,-0.58,0.03,10.05,2711
16:34:42.432,27605,-0.87,-0.54,0.04,10.25,2712
16:34:42.449,27615,-0.86,-0.56,0.04,10.24,2713
16:34:42.450,27625,-0.81,-0.61,0.04,10.17,2714
16:34:42.464,27635,-0.77,-0.66,0.05,10.15,2715
16:34:42.471,27645,-0.74,-0.68,0.03,10.06,2716
16:34:42.481,27655,-0.74,-0.68,0.01,10.02,2717
16:34:42.490,27665,-0.76,-0.66,0.00,10.08,2718
16:34:42.532,27675,-0.78,-0.65,-0.00,10.15,2719
16:34:42.532,27685,-0.82,-0.61,-0.01,10.23,2720
16:34:42.534,27695,-0.83,-0.60,-0.02,10.20,2721
16:34:42.535,27705,-0.85,-0.58,-0.01,10.27,2722
16:34:42.572,27715,-0.87,-0.59,-0.01,10.50,2723
16:34:42.573,27725,-0.86,-0.58,0.01,10.44,2724
16:34:42.575,27735,-0.84,-0.57,0.03,10.17,2725
16:34:42.577,27745,-0.80,-0.58,0.07,9.89,2726
16:34:42.604,27755,-0.79,-0.54,0.04,9.57,2727
16:34:42.604,27765,-0.73,-0.67,0.06,9.92,2728
16:34:42.605,27775,-0.67,-0.78,0.09,10.33,2729
16:34:42.611,27785,-0.68,-0.80,0.07,10.52,2730
16:34:42.646,27795,-0.71,-0.73,0.06,10.18,2731
16:34:42.646,27805,-0.78,-0.63,0.10,10.03,2732
16:34:42.647,27815,-0.82,-0.59,0.12,10.19,2733
16:34:42.650,27825,-0.89,-0.57,0.07,10.57,2734
16:34:42.687,27835,-0.94,-0.51,0.00,10.66,2735
16:34:42.688,27845,-0.95,-0.54,-0.02,10.90,2736
16:34:42.689,27855,-0.94,-0.59,-0.04,11.13,2737
16:34:42.690,27865,-0.93,-0.63,-0.09,11.24,2738
16:34:42.728,27875,-1.01,-0.60,-0.06,11.75,2739
16:34:42.729,27885,-1.13,-0.52,-0.05,12.46,2740
16:34:42.730,27895,-1.19,-0.45,-0.06,12.77,2741
16:34:42.732,27905,-1.30,-0.55,-0.15,14.22,2742
16:34:42.756,27915,-1.38,-0.76,-0.22,15.96,2743
16:34:42.756,27925,-1.62,-0.66,-0.21,17.62,2744
16:34:42.765,27935,-1.71,-0.49,-0.41,18.31,2745
16:34:42.774,27945,-1.71,-0.39,-0.56,18.44,2746
16:34:42.781,27955,-1.68,-0.60,-0.51,18.50,2747
16:34:42.792,27965,-1.55,-0.92,-0.25,18.26,2748
16:34:42.801,27975,-1.50,-1.02,0.07,18.15,2749
16:34:42.813,27985,-1.08,-1.03,0.04,14.88,2750
16:34:42.824,27995,-0.72,-1.06,0.17,12.91,2751
16:34:42.837,28005,-0.47,-1.23,0.29,13.49,2752
16:34:42.845,28015,-0.35,-1.33,0.75,15.63,2753
16:34:42.854,28025,-0.45,-1.42,0.90,17.46,2754
16:34:42.860,28035,-0.60,-1.40,0.98,18.12,2755
16:34:42.874,28045,-0.54,-1.20,1.07,16.95,2756
16:34:42.883,28055,-0.27,-0.92,1.39,16.90,2757
16:34:42.895,28065,-0.16,-0.74,1.42,16.10,2758
16:34:42.900,28075,-0.20,-0.49,1.11,12.26,2759
16:34:42.910,28085,-0.22,-0.30,0.92,9.93,2760
16:34:42.920,28095,-0.28,-0.33,0.75,8.71,2761
16:34:42.934,28105,-0.36,-0.54,0.59,8.71,2762
16:34:42.943,28115,-0.34,-0.75,0.33,8.94,2763
16:34:42.951,28125,-0.13,-0.87,0.50,10.10,2764
16:34:42.960,28135,0.12,-0.86,0.65,10.88,2765
16:34:42.974,28145,0.25,-0.80,0.60,10.28,2766
16:34:42.981,28155,0.27,-0.66,0.61,9.35,2767
16:34:42.991,28165,0.09,-0.53,0.62,8.22,2768
16:34:43.001,28175,-0.03,-0.43,0.64,7.69,2769
16:34:43.010,28185,-0.10,-0.36,0.68,7.76,2770
16:34:43.020,28195,-0.15,-0.31,0.71,7.94,2771
16:34:43.033,28205,-0.21,-0.26,0.76,8.26,2772
16:34:43.041,28215,-0.19,-0.23,0.85,9.04,2773
16:34:43.050,28225,-0.08,-0.22,0.80,8.37,2774
16:34:43.077,28235,-0.14,-0.29,0.61,6.93,2775
16:34:43.077,28245,-0.23,-0.32,0.59,7.10,2776
16:34:43.101,28255,-0.26,-0.30,0.64,7.55,2777
16:34:43.102,28265,-0.27,-0.34,0.68,8.06,2778
16:34:43.117,28275,-0.24,-0.38,0.72,8.45,2779
16:34:43.118,28285,-0.25,-0.40,0.65,8.01,2780
16:34:43.120,28295,-0.31,-0.60,0.60,9.01,2781
16:34:43.130,28305,-0.38,-0.77,0.53,10.10,2782
16:34:43.142,28315,-0.49,-0.81,0.50,10.76,2783
16:34:43.150,28325,-0.64,-0.79,0.51,11.37,2784
16:34:43.166,28335,-0.72,-0.72,0.46,11.17,2785
16:34:43.171,28345,-0.74,-0.61,0.33,10.11,2786
16:34:43.182,28355,-0.84,-0.51,0.24,10.10,2787
16:34:43.192,28365,-0.93,-0.57,0.36,11.48,2788
16:34:43.236,28375,-0.81,-0.56,0.30,10.32,2789
16:34:43.236,28385,-0.54,-0.28,-0.18,6.34,2790
16:34:43.237,28395,-0.54,-0.05,-0.52,7.55,2791
16:34:43.238,28405,-0.72,0.24,-0.72,10.49,2792
16:34:43.241,28415,-0.77,0.24,-1.03,13.05,2793
16:34:43.270,28425,-0.85,0.11,-1.05,13.52,2794
16:34:43.270,28435,-0.96,-0.10,-0.85,12.86,2795
16:34:43.271,28445,-0.73,-0.29,-0.28,8.32,2796
16:34:43.311,28455,-0.54,-0.41,-0.17,7.00,2797
16:34:43.311,28465,-0.49,-0.59,-0.14,7.83,2798
16:34:43.312,28475,-0.73,-0.81,-0.14,10.99,2799
16:34:43.313,28485,-1.26,-0.92,0.01,15.64,2800
16:34:43.352,28495,-1.85,-0.83,0.19,20.38,2801
16:34:43.353,28505,-2.04,-0.43,0.08,20.85,2802
16:34:43.354,28515,-1.68,0.14,-0.09,16.86,2803
16:34:43.355,28525,-1.51,0.26,-0.25,15.53,2804
16:34:43.393,28535,-1.09,-0.49,0.04,11.98,2805
16:34:43.394,28545,-0.60,-0.90,0.83,13.63,2806
16:34:43.395,28555,-0.31,-1.04,0.32,11.28,2807
16:34:43.396,28565,-0.14,-1.01,0.13,10.25,2808
16:34:43.432,28575,0.00,-1.04,0.34,10.93,2809
16:34:43.434,28585,-0.38,-0.78,0.32,9.20,2810
16:34:43.434,28595,-0.63,-0.74,0.37,10.42,2811
16:34:43.435,28605,-0.89,-0.64,0.49,12.01,2812
16:34:43.441,28615,-1.17,-0.47,0.43,13.29,2813
16:34:43.450,28625,-1.23,-0.29,0.34,13.12,2814
16:34:43.461,28635,-1.05,-0.30,0.29,11.30,2815
16:34:43.471,28645,-0.76,-0.66,0.25,10.44,2816
16:34:43.481,28655,-0.55,-0.85,0.19,10.31,2817
16:34:43.523,28665,-0.47,-0.95,0.05,10.57,2818
16:34:43.524,28675,-0.48,-0.97,-0.02,10.81,2819
16:34:43.525,28685,-0.54,-0.93,0.03,10.81,2820
16:34:43.526,28695,-0.63,-0.86,0.11,10.69,2821
16:34:43.530,28705,-0.66,-0.77,0.15,10.26,2822
16:34:43.540,28715,-0.72,-0.71,0.18,10.25,2823
16:34:43.554,28725,-0.82,-0.65,0.20,10.63,2824
16:34:43.563,28735,-0.89,-0.63,0.25,11.19,2825
16:34:43.573,28745,-0.88,-0.68,0.26,11.43,2826
16:34:43.583,28755,-0.80,-0.67,0.21,10.65,2827
16:34:43.593,28765,-0.74,-0.69,0.19,10.35,2828
16:34:43.602,28775,-0.73,-0.73,0.16,10.45,2829
16:34:43.612,28785,-0.71,-0.75,0.12,10.43,2830
16:34:43.626,28795,-0.68,-0.77,0.06,10.34,2831
16:34:43.630,28805,-0.68,-0.79,0.02,10.39,2832
16:34:43.647,28815,-0.65,-0.79,0.02,10.25,2833
16:34:43.651,28825,-0.68,-0.74,0.02,10.06,2834
16:34:43.664,28835,-0.75,-0.67,0.03,10.06,2835
16:34:43.675,28845,-0.82,-0.59,0.07,10.14,2836
16:34:43.680,28855,-0.86,-0.53,0.10,10.13,2837
16:34:43.692,28865,-0.86,-0.53,0.09,10.13,2838
16:34:43.702,28875,-0.83,-0.58,0.07,10.13,2839
16:34:43.710,28885,-0.81,-0.63,0.05,10.29,2840
16:34:43.720,28895,-0.79,-0.66,0.05,10.31,2841
16:34:43.731,28905,-0.77,-0.67,0.06,10.26,2842
16:34:43.743,28915,-0.78,-0.63,0.07,10.07,2843
16:34:43.753,28925,-0.79,-0.60,0.08,9.96,2844
16:34:43.761,28935,-0.80,-0.59,0.06,9.92,2845
16:34:43.770,28945,-0.82,-0.59,-0.01,10.08,2846
16:34:43.780,28955,-0.85,-0.59,-0.01,10.31,2847
16:34:43.790,28965,-0.91,-0.56,-0.01,10.65,2848
16:34:43.809,28975,-0.92,-0.55,-0.03,10.72,2849
16:34:43.811,28985,-0.86,-0.59,-0.04,10.46,2850
16:34:43.823,28995,-0.76,-0.64,-0.05,9.92,2851
16:34:43.833,29005,-0.69,-0.71,-0.04,9.89,2852
16:34:43.861,29015,-0.70,-0.69,-0.07,9.85,2853
16:34:43.862,29025,-0.75,-0.74,-0.08,10.53,2854
16:34:43.863,29035,-0.78,-0.73,0.02,10.64,2855
16:34:43.870,29045,-0.80,-0.68,0.04,10.49,2856
16:34:43.880,29055,-0.81,-0.63,0.05,10.26,2857
16:34:43.894,29065,-0.85,-0.62,0.06,10.57,2858
16:34:43.903,29075,-0.90,-0.56,0.05,10.63,2859
16:34:43.912,29085,-0.89,-0.57,0.01,10.61,2860
16:34:43.922,29095,-0.87,-0.63,0.00,10.77,2861
16:34:43.930,29105,-0.89,-0.64,0.00,10.96,2862
16:34:43.949,29115,-0.96,-0.59,-0.00,11.29,2863
16:34:43.950,29125,-1.01,-0.51,-0.03,11.37,2864
16:34:43.995,29135,-1.05,-0.45,-0.03,11.47,2865
16:34:43.995,29145,-1.14,-0.40,-0.05,12.09,2866
16:34:43.998,29155,-1.26,-0.38,-0.07,13.20,2867
16:34:43.998,29165,-1.39,-0.50,-0.10,14.85,2868
16:34:44.032,29175,-1.47,-0.78,-0.04,16.61,2869
16:34:44.032,29185,-1.68,-0.75,-0.09,18.41,2870
16:34:44.034,29195,-1.71,-0.59,-0.23,18.21,2871
16:34:44.079,29205,-1.65,-0.61,-0.42,18.11,2872
16:34:44.116,29215,-1.45,-0.87,-0.43,17.39,2873
16:34:44.116,29225,-1.20,-1.13,-0.07,16.48,2874
16:34:44.119,29235,-0.98,-1.30,0.19,16.39,2875
16:34:44.119,29245,-0.79,-1.37,0.31,16.10,2876
16:34:44.155,29255,-0.56,-1.34,0.47,15.29,2877
16:34:44.155,29265,-0.45,-1.37,0.70,16.04,2878
16:34:44.157,29275,-0.47,-1.34,0.85,16.55,2879
16:34:44.161,29285,-0.48,-1.23,0.77,15.31,2880
16:34:44.161,29295,-0.44,-1.07,0.90,14.62,2881
16:34:44.161,29305,-0.12,-0.93,1.41,16.90,2882
16:34:44.161,29315,0.02,-0.76,1.62,17.85,2883
16:34:44.161,29325,-0.15,-0.49,1.39,14.79,2884
16:34:44.161,29335,-0.30,-0.21,1.07,11.32,2885
16:34:44.195,29345,-0.36,-0.04,0.75,8.30,2886
16:34:44.195,29355,-0.46,-0.22,0.60,7.87,2887
16:34:44.196,29365,-0.37,-0.54,0.40,7.65,2888
16:34:44.202,29375,-0.17,-0.82,0.47,9.61,2889
16:34:44.212,29385,0.05,-0.80,0.67,10.47,2890
16:34:44.221,29395,0.13,-0.79,0.52,9.50,2891
16:34:44.230,29405,0.24,-0.65,0.58,9.05,2892
16:34:44.247,29415,0.11,-0.51,0.59,7.86,2893
16:34:44.250,29425,-0.07,-0.40,0.59,7.18,2894
16:34:44.261,29435,-0.20,-0.32,0.66,7.62,2895
16:34:44.270,29445,-0.27,-0.29,0.71,8.14,2896
16:34:44.281,29455,-0.32,-0.27,0.80,8.99,2897
16:34:44.295,29465,-0.30,-0.15,0.90,9.64,2898
16:34:44.300,29475,-0.16,-0.14,0.85,8.71,2899
16:34:44.316,29485,-0.08,-0.12,0.57,5.92,2900
16:34:44.320,29495,-0.15,-0.24,0.53,5.98,2901
16:34:44.331,29505,-0.23,-0.33,0.61,7.31,2902
16:34:44.340,29515,-0.31,-0.42,0.60,7.94,2903
16:34:44.351,29525,-0.34,-0.45,0.61,8.32,2904
16:34:44.361,29535,-0.37,-0.38,0.64,8.32,2905
16:34:44.379,29545,-0.40,-0.45,0.69,9.14,2906
16:34:44.379,29555,-0.35,-0.64,0.66,9.84,2907
16:34:44.396,29565,-0.41,-0.79,0.61,10.77,2908
16:34:44.402,29575,-0.56,-0.87,0.40,11.11,2909
16:34:44.417,29585,-0.62,-0.79,0.21,10.23,2910
16:34:44.420,29595,-0.67,-0.78,0.26,10.59,2911
16:34:44.437,29605,-0.73,-0.69,0.32,10.55,2912
16:34:44.441,29615,-0.80,-0.63,0.29,10.60,2913
16:34:44.451,29625,-0.84,-0.51,0.20,10.00,2914
16:34:44.467,29635,-0.69,-0.49,0.05,8.48,2915
16:34:44.470,29645,-0.60,-0.14,-0.33,6.97,2916
16:34:44.486,29655,-0.65,0.12,-0.70,9.67,2917
16:34:44.490,29665,-0.76,0.18,-0.94,12.23,2918
16:34:44.505,29675,-1.08,0.10,-1.03,14.95,2919
16:34:44.511,29685,-0.93,-0.05,-0.86,12.74,2920
16:34:44.529,29695,-0.76,-0.29,-0.71,10.84,2921
16:34:44.530,29705,-0.59,-0.43,-0.37,8.15,2922
16:34:44.546,29715,-0.50,-0.65,-0.19,8.38,2923
16:34:44.551,29725,-0.60,-0.70,-0.08,9.20,2924
16:34:44.568,29735,-1.13,-0.84,-0.01,14.13,2925
16:34:44.570,29745,-1.77,-0.67,0.26,19.10,2926
16:34:44.584,29755,-2.13,-0.41,0.22,21.75,2927
16:34:44.590,29765,-1.98,0.21,-0.01,19.95,2928
16:34:44.602,29775,-1.64,0.53,-0.08,17.20,2929
16:34:44.614,29785,-0.99,-0.02,0.47,10.95,2930
16:34:44.621,29795,-0.62,-0.65,0.42,9.93,2931
16:34:44.632,29805,-0.34,-0.76,0.54,9.90,2932
16:34:44.640,29815,-0.15,-0.99,0.21,10.26,2933
16:34:44.652,29825,-0.13,-1.16,0.25,11.96,2934
16:34:44.662,29835,-0.16,-0.96,0.44,10.70,2935
16:34:44.673,29845,-0.67,-0.83,0.32,11.16,2936
16:34:44.681,29855,-0.91,-0.66,0.49,12.26,2937
16:34:44.692,29865,-1.13,-0.53,0.41,13.18,2938
16:34:44.703,29875,-1.11,-0.41,0.28,12.14,2939
16:34:44.714,29885,-0.84,-0.64,0.11,10.64,2940
16:34:44.722,29895,-0.64,-0.87,0.06,10.82,2941
16:34:44.732,29905,-0.56,-0.91,0.03,10.66,2942
16:34:44.773,29915,-0.55,-0.90,-0.01,10.57,2943
16:34:44.774,29925,-0.56,-0.89,-0.03,10.55,2944
16:34:44.775,29935,-0.60,-0.87,0.01,10.57,2945
16:34:44.776,29945,-0.63,-0.82,0.05,10.36,2946
16:34:44.811,29955,-0.67,-0.77,0.09,10.20,2947
16:34:44.812,29965,-0.74,-0.71,0.15,10.38,2948
16:34:44.813,29975,-0.78,-0.70,0.18,10.60,2949
16:34:44.814,29985,-0.87,-0.69,0.22,11.33,2950
16:34:44.853,29995,-0.86,-0.62,0.24,10.85,2951
16:34:44.855,30005,-0.82,-0.62,0.21,10.49,2952
16:34:44.856,30015,-0.79,-0.61,0.17,10.16,2953
16:34:44.895,30025,-0.77,-0.64,0.11,10.06,2954
16:34:44.896,30035,-0.73,-0.68,0.06,10.03,2955
16:34:44.896,30045,-0.72,-0.73,0.03,10.26,2956
16:34:44.897,30055,-0.69,-0.77,0.04,10.37,2957
16:34:44.898,30065,-0.66,-0.78,0.04,10.22,2958
16:34:44.934,30075,-0.67,-0.74,0.05,9.97,2959
16:34:44.935,30085,-0.73,-0.68,0.08,9.99,2960
16:34:44.937,30095,-0.79,-0.62,0.09,10.05,2961
16:34:44.939,30105,-0.84,-0.55,0.09,10.11,2962
16:34:44.972,30115,-0.84,-0.54,0.10,10.05,2963
16:34:44.973,30125,-0.81,-0.57,0.09,9.98,2964
16:34:44.973,30135,-0.81,-0.59,0.10,10.06,2965
16:34:44.975,30145,-0.80,-0.62,0.09,10.18,2966
16:34:44.980,30155,-0.79,-0.63,0.07,10.17,2967
16:34:44.992,30165,-0.77,-0.62,0.07,9.94,2968
16:34:45.000,30175,-0.80,-0.59,0.09,10.03,2969
16:34:45.010,30185,-0.84,-0.58,0.13,10.29,2970
16:34:45.020,30195,-0.86,-0.58,0.14,10.44,2971
16:34:45.030,30205,-0.86,-0.58,0.10,10.41,2972
16:34:45.040,30215,-0.84,-0.58,0.07,10.25,2973
16:34:45.056,30225,-0.83,-0.60,0.05,10.28,2974
16:34:45.061,30235,-0.84,-0.60,0.01,10.31,2975
16:34:45.078,30245,-0.85,-0.62,0.00,10.48,2976
16:34:45.079,30255,-0.89,-0.50,-0.01,10.20,2977
16:34:45.090,30265,-0.81,-0.61,-0.05,10.13,2978
16:34:45.100,30275,-0.76,-0.65,-0.02,9.99,2979
16:34:45.111,30285,-0.68,-0.70,0.02,9.79,2980
16:34:45.142,30295,-0.64,-0.75,0.01,9.90,2981
16:34:45.143,30305,-0.66,-0.74,0.01,9.88,2982
16:34:45.144,30315,-0.71,-0.74,0.08,10.31,2983
16:34:45.150,30325,-0.77,-0.71,0.10,10.54,2984
16:34:45.159,30335,-0.74,-0.68,0.09,10.10,2985
16:34:45.179,30345,-0.74,-0.67,0.08,10.08,2986
16:34:45.180,30355,-0.85,-0.62,0.12,10.57,2987
16:34:45.190,30365,-0.95,-0.56,0.16,11.12,2988
16:34:45.202,30375,-0.96,-0.57,0.16,11.30,2989
16:34:45.212,30385,-0.96,-0.58,0.09,11.23,2990
16:34:45.222,30395,-0.99,-0.52,0.04,11.20,2991
16:34:45.236,30405,-1.04,-0.48,0.02,11.42,2992
16:34:45.241,30415,-1.11,-0.51,-0.02,12.24,2993
16:34:45.250,30425,-1.17,-0.68,-0.06,13.57,2994
16:34:45.262,30435,-1.36,-0.73,-0.11,15.50,2995
16:34:45.274,30445,-1.54,-0.59,-0.14,16.49,2996
16:34:45.282,30455,-1.66,-0.45,-0.48,17.84,2997
16:34:45.290,30465,-1.71,-0.47,-0.58,18.67,2998
16:34:45.307,30475,-1.69,-0.74,-0.57,19.34,2999
16:34:45.308,30485,-1.64,-0.86,-0.30,18.81,3000
16:34:45.329,30495,-1.46,-0.86,-0.16,17.06,3001
16:34:45.332,30505,-1.15,-0.96,-0.17,15.05,3002
16:34:45.342,30515,-0.76,-1.11,0.05,13.50,3003
16:34:45.371,30525,-0.56,-1.23,0.33,13.93,3004
16:34:45.376,30535,-0.44,-1.29,0.69,15.28,3005
16:34:45.377,30545,-0.58,-1.35,0.89,17.14,3006
16:34:45.381,30555,-0.72,-1.25,0.96,17.33,3007
16:34:45.419,30565,-0.62,-1.11,1.05,16.44,3008
16:34:45.422,30575,-0.32,-0.93,1.49,17.82,3009
16:34:45.463,30585,-0.21,-0.70,1.59,17.49,3010
16:34:45.502,30595,-0.43,-0.40,1.20,13.39,3011
16:34:45.502,30605,-0.48,-0.22,0.99,11.25,3012
16:34:45.505,30615,-0.45,-0.17,0.95,10.62,3013
16:34:45.506,30625,-0.49,-0.39,0.79,10.09,3014
16:34:45.506,30635,-0.38,-0.67,0.60,9.80,3015
16:34:45.508,30645,-0.21,-0.92,0.51,10.69,3016
16:34:45.508,30655,0.04,-0.96,0.56,11.14,3017
16:34:45.508,30665,0.21,-0.85,0.55,10.36,3018
16:34:45.508,30675,0.28,-0.74,0.51,9.39,3019
16:34:45.545,30685,0.06,-0.63,0.59,8.62,3020
16:34:45.545,30695,-0.12,-0.47,0.66,8.18,3021
16:34:45.546,30705,-0.21,-0.40,0.70,8.32,3022
16:34:45.548,30715,-0.23,-0.35,0.73,8.42,3023
16:34:45.550,30725,-0.26,-0.26,0.83,9.04,3024
16:34:45.583,30735,-0.19,-0.10,0.90,9.25,3025
16:34:45.584,30745,-0.06,-0.07,0.80,8.02,3026
16:34:45.584,30755,-0.02,-0.07,0.66,6.59,3027
16:34:45.619,30765,-0.14,-0.22,0.59,6.48,3028
16:34:45.619,30775,-0.22,-0.33,0.65,7.59,3029
16:34:45.621,30785,-0.28,-0.39,0.68,8.29,3030
16:34:45.622,30795,-0.30,-0.31,0.67,8.00,3031
16:34:45.631,30805,-0.39,-0.26,0.72,8.60,3032
16:34:45.641,30815,-0.47,-0.44,0.76,9.95,3033
16:34:45.650,30825,-0.48,-0.70,0.57,10.23,3034
16:34:45.660,30835,-0.52,-0.95,0.39,11.46,3035
16:34:45.672,30845,-0.52,-1.01,0.29,11.66,3036
16:34:45.681,30855,-0.47,-0.87,0.20,10.08,3037
16:34:45.703,30865,-0.60,-0.76,0.19,9.84,3038
16:34:45.717,30875,-0.70,-0.69,0.26,10.15,3039
16:34:45.718,30885,-0.77,-0.56,0.30,9.93,3040
16:34:45.733,30895,-0.71,-0.38,0.29,8.51,3041
16:34:45.734,30905,-0.67,-0.07,-0.12,6.79,3042
16:34:45.740,30915,-0.56,0.22,-0.72,9.40,3043
16:34:45.758,30925,-0.72,0.42,-1.20,14.64,3044
16:34:45.759,30935,-0.80,0.36,-1.03,13.54,3045
16:34:45.774,30945,-0.91,0.02,-0.72,11.66,3046
16:34:45.784,30955,-0.86,-0.39,-0.40,10.21,3047
16:34:45.794,30965,-0.55,-0.63,-0.20,8.60,3048
16:34:45.805,30975,-0.40,-0.67,-0.08,7.86,3049
16:34:45.810,30985,-0.71,-0.71,-0.13,10.11,3050
16:34:45.828,30995,-1.53,-0.76,0.13,17.18,3051
16:34:45.829,31005,-2.13,-0.60,0.36,22.37,3052
16:34:45.848,31015,-2.13,-0.14,0.23,21.42,3053
16:34:45.849,31025,-1.87,0.45,-0.13,19.25,3054
16:34:45.861,31035,-1.51,0.64,-0.03,16.35,3055
16:34:45.876,31045,-0.89,-0.34,0.23,9.81,3056
16:34:45.880,31055,-0.43,-0.78,0.61,10.82,3057
16:34:45.897,31065,-0.19,-0.94,0.49,10.75,3058
16:34:45.900,31075,0.02,-1.22,0.36,12.77,3059
16:34:45.910,31085,0.11,-1.36,0.23,13.81,3060
16:34:45.921,31095,-0.31,-0.99,0.28,10.69,3061
16:34:45.939,31105,-0.61,-0.79,0.41,10.77,3062
16:34:45.948,31115,-0.98,-0.64,0.45,12.50,3063
16:34:45.950,31125,-1.17,-0.51,0.42,13.46,3064
16:34:45.961,31135,-1.11,-0.41,0.35,12.28,3065
16:34:45.970,31145,-0.84,-0.65,0.18,10.77,3066
16:34:45.985,31155,-0.62,-0.81,0.11,10.24,3067
16:34:45.993,31165,-0.55,-0.86,0.07,10.20,3068
16:34:46.006,31175,-0.57,-0.88,0.00,10.54,3069
16:34:46.011,31185,-0.57,-0.90,0.02,10.61,3070
16:34:46.028,31195,-0.58,-0.89,0.02,10.66,3071
16:34:46.030,31205,-0.62,-0.85,0.05,10.52,3072
16:34:46.041,31215,-0.69,-0.77,0.06,10.40,3073
16:34:46.057,31225,-0.77,-0.72,0.10,10.63,3074
16:34:46.060,31235,-0.85,-0.69,0.13,11.01,3075
16:34:46.077,31245,-0.89,-0.65,0.15,11.09,3076
16:34:46.081,31255,-0.88,-0.59,0.17,10.73,3077
16:34:46.091,31265,-0.84,-0.57,0.17,10.26,3078
16:34:46.100,31275,-0.82,-0.53,0.13,9.84,3079
16:34:46.142,31285,-0.82,-0.57,0.05,9.96,3080
16:34:46.142,31295,-0.77,-0.65,0.05,10.03,3081
16:34:46.260,31305,-0.76,-0.70,0.03,10.32,3082
16:34:46.261,31315,-0.71,-0.74,-0.01,10.23,3083
16:34:46.261,31325,-0.69,-0.75,-0.01,10.15,3084
16:34:46.262,31335,-0.70,-0.71,0.00,10.00,3085
16:34:46.264,31345,-0.75,-0.65,0.04,9.92,3086
16:34:46.300,31355,-0.81,-0.59,0.06,10.04,3087
16:34:46.300,31365,-0.85,-0.53,0.06,10.10,3088
16:34:46.301,31375,-0.87,-0.53,0.07,10.23,3089
16:34:46.302,31385,-0.87,-0.56,0.05,10.32,3090
16:34:46.307,31395,-0.82,-0.60,0.04,10.13,3091
16:34:46.307,31405,-0.79,-0.63,0.05,10.14,3092
16:34:46.307,31415,-0.76,-0.66,0.06,10.07,3093
16:34:46.307,31425,-0.76,-0.67,0.07,10.15,3094
16:34:46.307,31435,-0.77,-0.66,0.05,10.12,3095
16:34:46.307,31445,-0.80,-0.62,0.05,10.11,3096
16:34:46.307,31455,-0.87,-0.56,0.05,10.38,3097
16:34:46.307,31465,-0.92,-0.52,0.05,10.62,3098
16:34:46.307,31475,-0.96,-0.49,0.05,10.78,3099
16:34:46.336,31485,-0.93,-0.51,0.01,10.56,3100
16:34:46.337,31495,-0.89,-0.58,-0.05,10.61,3101
16:34:46.338,31505,-0.82,-0.57,-0.13,10.04,3102
16:34:46.340,31515,-0.77,-0.66,-0.17,10.23,3103
16:34:46.353,31525,-0.74,-0.72,-0.15,10.39,3104
16:34:46.362,31535,-0.74,-0.71,-0.13,10.35,3105
16:34:46.374,31545,-0.80,-0.69,-0.12,10.59,3106
16:34:46.381,31555,-0.84,-0.64,-0.08,10.60,3107
16:34:46.390,31565,-0.84,-0.57,-0.04,10.20,3108
16:34:46.423,31575,-0.85,-0.54,-0.01,10.03,3109
16:34:46.425,31585,-0.88,-0.54,0.04,10.34,3110
16:34:46.426,31595,-0.93,-0.55,0.12,10.84,3111
16:34:46.431,31605,-0.96,-0.58,0.16,11.39,3112
16:34:46.441,31615,-0.97,-0.53,0.10,11.03,3113
16:34:46.450,31625,-0.99,-0.52,0.05,11.18,3114
16:34:46.461,31635,-1.06,-0.55,0.01,11.97,3115
16:34:46.472,31645,-1.12,-0.76,0.04,13.59,3116
16:34:46.482,31655,-1.39,-0.75,0.07,15.81,3117
16:34:46.491,31665,-1.66,-0.62,-0.11,17.74,3118
16:34:46.518,31675,-1.71,-0.40,-0.22,17.67,3119
16:34:46.519,31685,-1.71,-0.55,-0.54,18.77,3120
16:34:46.520,31695,-1.56,-0.79,-0.26,17.66,3121
16:34:46.530,31705,-1.55,-0.90,-0.02,17.96,3122
16:34:46.545,31715,-1.30,-0.89,0.04,15.77,3123
16:34:46.550,31725,-0.92,-0.99,0.14,13.60,3124
16:34:46.567,31735,-0.65,-1.17,0.36,13.89,3125
16:34:46.581,31745,-0.54,-1.32,0.61,15.49,3126
16:34:46.584,31755,-0.56,-1.34,0.77,16.43,3127
16:34:46.591,31765,-0.57,-1.19,0.83,15.55,3128
16:34:46.600,31775,-0.45,-0.95,0.99,14.46,3129
16:34:46.614,31785,-0.21,-0.85,1.24,15.18,3130
16:34:46.620,31795,-0.32,-0.68,1.31,15.13,3131
16:34:46.637,31805,-0.56,-0.46,1.12,13.38,3132
16:34:46.638,31815,-0.73,-0.29,0.86,11.68,3133
16:34:46.656,31825,-0.67,-0.24,0.80,10.70,3134
16:34:46.662,31835,-0.48,-0.47,0.75,10.06,3135
16:34:46.674,31845,-0.30,-0.63,0.75,10.23,3136
16:34:46.683,31855,-0.12,-0.70,0.71,9.98,3137
16:34:46.692,31865,0.00,-0.69,0.68,9.69,3138
16:34:46.703,31875,0.07,-0.65,0.58,8.74,3139
16:34:46.712,31885,0.02,-0.60,0.58,8.37,3140
16:34:46.725,31895,-0.08,-0.57,0.67,8.85,3141
16:34:46.730,31905,-0.13,-0.57,0.78,9.72,3142
16:34:46.743,31915,-0.15,-0.50,0.83,9.78,3143
16:34:46.750,31925,-0.10,-0.44,0.80,9.20,3144
16:34:46.760,31935,-0.06,-0.39,0.71,8.10,3145
16:34:46.774,31945,-0.02,-0.36,0.67,7.61,3146
16:34:46.787,31955,-0.01,-0.35,0.67,7.62,3147
16:34:46.793,31965,-0.04,-0.35,0.72,7.99,3148
16:34:46.805,31975,-0.12,-0.34,0.72,8.06,3149
16:34:46.813,31985,-0.22,-0.32,0.68,7.80,3150
16:34:46.820,31995,-0.28,-0.28,0.63,7.47,3151
16:34:46.830,32005,-0.29,-0.27,0.63,7.45,3152
16:34:46.843,32015,-0.32,-0.29,0.68,8.09,3153
16:34:46.850,32025,-0.40,-0.34,0.66,8.44,3154
16:34:46.860,32035,-0.46,-0.47,0.51,8.31,3155
16:34:46.902,32045,-0.45,-0.67,0.51,9.57,3156
16:34:46.902,32055,-0.47,-0.82,0.45,10.46,3157
16:34:46.902,32065,-0.45,-0.86,0.38,10.40,3158
16:34:46.903,32075,-0.42,-0.77,0.21,8.98,3159
16:34:46.943,32085,-0.51,-0.68,0.20,8.74,3160
16:34:46.943,32095,-0.68,-0.55,0.34,9.36,3161
16:34:46.943,32105,-0.66,-0.46,0.41,9.06,3162
16:34:46.945,32115,-0.72,-0.24,0.08,7.63,3163
16:34:46.983,32125,-0.70,-0.02,-0.17,7.18,3164
16:34:46.984,32135,-0.72,0.11,-0.37,8.15,3165
16:34:46.984,32145,-0.95,0.13,-0.42,10.51,3166
16:34:46.986,32155,-1.05,0.08,-0.56,11.91,3167
16:34:47.028,32165,-0.97,0.02,-0.71,12.01,3168
16:34:47.028,32175,-0.78,-0.10,-0.67,10.31,3169
16:34:47.029,32185,-0.54,-0.31,-0.43,7.57,3170
16:34:47.065,32195,-0.55,-0.29,-0.31,6.99,3171
16:34:47.067,32205,-0.64,-0.41,-0.08,7.60,3172
16:34:47.067,32215,-0.73,-0.58,-0.02,9.31,3173
16:34:47.068,32225,-0.77,-0.74,-0.02,10.63,3174
16:34:47.070,32235,-1.36,-0.71,0.02,15.39,3175
16:34:47.102,32245,-2.08,-0.54,0.24,21.67,3176
16:34:47.102,32255,-2.13,-0.34,0.15,21.58,3177
16:34:47.103,32265,-1.94,0.12,-0.22,19.53,3178
16:34:47.104,32275,-1.20,0.56,-0.66,14.79,3179
16:34:47.110,32285,-1.05,-0.42,-0.29,11.68,3180
16:34:47.120,32295,-0.78,-0.55,0.26,9.90,3181
16:34:47.135,32305,-0.74,-1.00,-0.08,12.46,3182
16:34:47.144,32315,-0.29,-1.16,0.23,12.13,3183
16:34:47.151,32325,-0.22,-1.10,0.42,11.97,3184
16:34:47.161,32335,-0.35,-0.96,0.50,11.37,3185
16:34:47.171,32345,-0.40,-0.67,0.69,10.44,3186
16:34:47.186,32355,-0.69,-0.48,0.65,10.60,3187
16:34:47.192,32365,-0.98,-0.37,0.53,11.77,3188
16:34:47.201,32375,-1.10,-0.44,0.46,12.70,3189
16:34:47.212,32385,-0.91,-0.73,0.35,12.22,3190
16:34:47.226,32395,-0.66,-0.94,0.26,11.72,3191
16:34:47.230,32405,-0.49,-1.02,0.16,11.43,3192
16:34:47.240,32415,-0.38,-1.06,0.07,11.25,3193
16:34:47.257,32425,-0.40,-1.02,0.03,10.91,3194
16:34:47.260,32435,-0.55,-0.85,0.09,10.18,3195
16:34:47.280,32445,-0.65,-0.78,0.17,10.30,3196
16:34:47.281,32455,-0.77,-0.73,0.20,10.78,3197
16:34:47.290,32465,-0.91,-0.71,0.20,11.72,3198
16:34:47.302,32475,-0.95,-0.57,0.21,11.25,3199
16:34:47.312,32485,-1.03,-0.44,0.20,11.40,3200
16:34:47.321,32495,-1.03,-0.39,0.21,11.23,3201
16:34:47.330,32505,-0.88,-0.45,0.17,10.06,3202
16:34:47.341,32515,-0.81,-0.55,0.09,9.85,3203
16:34:47.351,32525,-0.74,-0.69,0.04,10.12,3204
16:34:47.367,32535,-0.67,-0.84,-0.02,10.74,3205
16:34:47.370,32545,-0.57,-0.94,-0.05,11.04,3206
16:34:47.385,32555,-0.55,-0.98,-0.09,11.29,3207
16:34:47.390,32565,-0.62,-0.81,-0.04,10.16,3208
16:34:47.401,32575,-0.71,-0.68,-0.00,9.81,3209
16:34:47.413,32585,-0.82,-0.58,0.03,10.07,3210
16:34:47.423,32595,-0.94,-0.46,0.09,10.50,3211
16:34:47.436,32605,-0.97,-0.44,0.11,10.73,3212
16:34:47.440,32615,-0.87,-0.53,0.08,10.23,3213
16:34:47.458,32625,-0.79,-0.61,0.03,10.02,3214
16:34:47.459,32635,-0.75,-0.66,0.02,10.00,3215
16:34:47.479,32645,-0.74,-0.69,0.02,10.17,3216
16:34:47.480,32655,-0.76,-0.67,0.02,10.10,3217
16:34:47.495,32665,-0.80,-0.63,0.03,10.15,3218
16:34:47.514,32675,-0.83,-0.57,0.03,10.09,3219
16:34:47.514,32685,-0.85,-0.54,0.03,10.11,3220
16:34:47.520,32695,-0.85,-0.56,0.02,10.15,3221
16:34:47.530,32705,-0.85,-0.58,0.03,10.24,3222
16:34:47.541,32715,-0.82,-0.61,0.03,10.24,3223
16:34:47.556,32725,-0.80,-0.64,0.01,10.22,3224
16:34:47.561,32735,-0.80,-0.63,-0.05,10.19,3225
16:34:47.578,32745,-0.81,-0.58,-0.04,9.95,3226
16:34:47.579,32755,-0.81,-0.58,-0.04,9.99,3227
16:34:47.590,32765,-0.79,-0.61,-0.02,10.00,3228
16:34:47.601,32775,-0.81,-0.63,0.02,10.24,3229
16:34:47.614,32785,-0.78,-0.66,0.06,10.24,3230
16:34:47.620,32795,-0.77,-0.67,0.05,10.19,3231
16:34:47.631,32805,-0.83,-0.65,0.10,10.62,3232
16:34:47.682,32815,-0.90,-0.58,0.13,10.77,3233
16:34:47.682,32825,-0.90,-0.55,0.12,10.63,3234
16:34:47.683,32835,-0.82,-0.61,0.06,10.24,3235
16:34:47.683,32845,-0.81,-0.66,0.04,10.48,3236
16:34:47.685,32855,-0.87,-0.66,0.05,10.92,3237
16:34:47.723,32865,-0.95,-0.61,0.06,11.31,3238
16:34:47.723,32875,-1.03,-0.51,0.05,11.46,3239
16:34:47.724,32885,-1.07,-0.41,-0.00,11.48,3240
16:34:47.728,32895,-1.14,-0.35,-0.04,11.97,3241
16:34:47.763,32905,-1.23,-0.38,-0.07,12.88,3242
16:34:47.765,32915,-1.37,-0.62,-0.16,15.10,3243
16:34:47.767,32925,-1.54,-0.76,-0.18,17.28,3244
16:34:47.770,32935,-1.79,-0.66,-0.29,19.31,3245
16:34:47.808,32945,-1.75,-0.49,-0.47,18.77,3246
16:34:47.810,32955,-1.63,-0.54,-0.54,18.03,3247
16:34:47.810,32965,-1.39,-0.88,-0.22,16.59,3248
16:34:47.847,32975,-1.24,-1.16,0.02,17.00,3249
16:34:47.847,32985,-0.98,-1.25,0.15,15.91,3250
16:34:47.849,32995,-0.70,-1.31,0.33,15.24,3251
16:34:47.852,33005,-0.49,-1.37,0.57,15.68,3252
16:34:47.852,33015,-0.43,-1.40,0.62,15.86,3253
16:34:47.880,33025,-0.44,-1.31,0.77,15.82,3254
16:34:47.880,33035,-0.48,-1.18,0.84,15.27,3255
16:34:47.882,33045,-0.37,-1.02,1.00,14.80,3256
16:34:47.882,33055,-0.21,-0.86,1.33,15.98,3257
16:34:47.901,33065,-0.09,-0.69,1.53,16.79,3258
16:34:47.903,33075,-0.15,-0.40,1.32,13.89,3259
16:34:47.913,33085,-0.29,-0.15,0.97,10.23,3260
16:34:47.922,33095,-0.37,-0.02,0.74,8.25,3261
16:34:47.930,33105,-0.43,-0.29,0.63,8.18,3262
16:34:47.940,33115,-0.39,-0.62,0.46,8.62,3263
16:34:47.950,33125,-0.21,-0.83,0.55,10.13,3264
16:34:47.961,33135,0.04,-0.82,0.66,10.52,3265
16:34:47.973,33145,0.19,-0.79,0.54,9.75,3266
16:34:47.982,33155,0.28,-0.69,0.55,9.22,3267
16:34:47.990,33165,0.13,-0.54,0.62,8.30,3268
16:34:48.002,33175,-0.04,-0.39,0.61,7.27,3269
16:34:48.013,33185,-0.15,-0.31,0.68,7.61,3270
16:34:48.022,33195,-0.26,-0.27,0.72,8.07,3271
16:34:48.032,33205,-0.31,-0.28,0.75,8.59,3272
16:34:48.040,33215,-0.21,-0.24,0.86,9.22,3273
16:34:48.055,33225,-0.08,-0.29,0.77,8.29,3274
16:34:48.089,33235,-0.09,-0.34,0.57,6.76,3275
16:34:48.091,33245,-0.18,-0.37,0.53,6.66,3276
16:34:48.092,33255,-0.23,-0.42,0.56,7.36,3277
16:34:48.096,33265,-0.30,-0.47,0.56,7.89,3278
16:34:48.100,33275,-0.33,-0.42,0.50,7.37,3279
16:34:48.110,33285,-0.39,-0.44,0.60,8.42,3280
16:34:48.120,33295,-0.42,-0.48,0.69,9.43,3281
16:34:48.136,33305,-0.49,-0.50,0.64,9.51,3282
16:34:48.140,33315,-0.57,-0.55,0.63,10.15,3283
16:34:48.157,33325,-0.69,-0.69,0.69,11.91,3284
16:34:48.158,33335,-0.82,-0.81,0.49,12.54,3285
16:34:48.177,33345,-0.61,-0.79,0.32,10.44,3286
16:34:48.180,33355,-0.56,-0.71,0.11,9.16,3287
16:34:48.191,33365,-0.66,-0.61,0.10,9.05,3288
16:34:48.205,33375,-0.74,-0.57,0.18,9.57,3289
16:34:48.211,33385,-0.68,-0.43,-0.09,8.08,3290
16:34:48.222,33395,-0.70,-0.11,-0.40,8.11,3291
16:34:48.231,33405,-0.75,0.12,-0.58,9.59,3292
16:34:48.246,33415,-0.92,0.34,-0.82,12.79,3293
16:34:48.254,33425,-1.02,0.39,-0.92,14.28,3294
16:34:48.262,33435,-0.84,0.15,-0.86,12.09,3295
16:34:48.273,33445,-0.64,-0.19,-0.67,9.44,3296
16:34:48.281,33455,-0.46,-0.48,-0.30,7.28,3297
16:34:48.291,33465,-0.44,-0.74,0.01,8.63,3298
16:34:48.307,33475,-0.43,-0.99,-0.03,10.81,3299
16:34:48.308,33485,-0.56,-1.01,-0.05,11.55,3300
16:34:48.418,33495,-1.11,-0.95,0.01,14.59,3301
16:34:48.418,33505,-1.82,-0.69,0.21,19.56,3302
16:34:48.419,33515,-2.13,-0.27,0.10,21.44,3303
16:34:48.421,33525,-2.02,0.22,-0.04,20.36,3304
16:34:48.421,33535,-1.69,0.46,-0.12,17.54,3305
16:34:48.422,33545,-1.16,-0.31,-0.03,12.00,3306
16:34:48.461,33555,-0.72,-0.54,0.40,9.87,3307
16:34:48.461,33565,-0.34,-0.89,0.32,10.05,3308
16:34:48.464,33575,-0.20,-1.08,0.08,10.97,3309
16:34:48.464,33585,-0.14,-1.00,0.31,10.58,3310
16:34:48.464,33595,-0.44,-0.85,0.43,10.46,3311
16:34:48.464,33605,-0.70,-0.71,0.49,11.13,3312
16:34:48.464,33615,-0.77,-0.53,0.56,10.92,3313
16:34:48.464,33625,-1.08,-0.40,0.53,12.68,3314
16:34:48.464,33635,-1.19,-0.27,0.40,12.90,3315
16:34:48.500,33645,-0.91,-0.48,0.32,10.81,3316
16:34:48.500,33655,-0.72,-0.79,0.24,10.96,3317
16:34:48.501,33665,-0.56,-0.92,0.12,10.83,3318
16:34:48.503,33675,-0.48,-0.98,-0.01,10.86,3319
16:34:48.541,33685,-0.44,-0.96,-0.06,10.61,3320
16:34:48.541,33695,-0.57,-0.89,0.00,10.53,3321
16:34:48.542,33705,-0.67,-0.81,0.10,10.50,3322
16:34:48.545,33715,-0.74,-0.74,0.13,10.60,3323
16:34:48.578,33725,-0.80,-0.68,0.13,10.53,3324
16:34:48.580,33735,-0.82,-0.67,0.16,10.67,3325
16:34:48.581,33745,-0.83,-0.67,0.16,10.73,3326
16:34:48.581,33755,-0.82,-0.66,0.12,10.59,3327
16:34:48.590,33765,-0.79,-0.68,0.09,10.43,3328
16:34:48.601,33775,-0.77,-0.68,0.08,10.30,3329
16:34:48.617,33785,-0.77,-0.69,0.04,10.37,3330
16:34:48.621,33795,-0.74,-0.73,0.01,10.37,3331
16:34:48.630,33805,-0.69,-0.77,-0.01,10.36,3332
16:34:48.645,33815,-0.65,-0.82,-0.03,10.42,3333
16:34:48.650,33825,-0.61,-0.84,-0.02,10.44,3334
16:34:48.660,33835,-0.65,-0.80,0.04,10.31,3335
16:34:48.673,33845,-0.72,-0.68,0.09,9.96,3336
16:34:48.682,33855,-0.83,-0.56,0.14,10.08,3337
16:34:48.697,33865,-0.92,-0.45,0.20,10.41,3338
16:34:48.700,33875,-1.00,-0.42,0.21,11.05,3339
16:34:48.714,33885,-0.94,-0.49,0.22,10.86,3340
16:34:48.721,33895,-0.80,-0.63,0.15,10.32,3341
16:34:48.734,33905,-0.75,-0.67,0.07,10.06,3342
16:34:48.741,33915,-0.72,-0.69,0.07,10.05,3343
16:34:48.752,33925,-0.76,-0.65,0.10,10.10,3344
16:34:48.761,33935,-0.79,-0.62,0.11,10.11,3345
16:34:48.803,33945,-0.80,-0.60,0.10,10.05,3346
16:34:48.803,33955,-0.82,-0.60,0.09,10.18,3347
16:34:48.805,33965,-0.85,-0.57,0.04,10.25,3348
16:34:48.818,33975,-0.85,-0.58,0.00,10.31,3349
16:34:48.819,33985,-0.83,-0.63,-0.03,10.39,3350
16:34:48.820,33995,-0.78,-0.68,-0.04,10.31,3351
16:34:48.839,34005,-0.76,-0.68,-0.05,10.22,3352
16:34:48.840,34015,-0.75,-0.58,-0.08,9.51,3353
16:34:48.850,34025,-0.74,-0.59,-0.08,9.48,3354
16:34:48.860,34035,-0.76,-0.64,-0.02,9.95,3355
16:34:48.870,34045,-0.79,-0.68,0.03,10.44,3356
16:34:48.889,34055,-0.80,-0.67,0.06,10.42,3357
16:34:48.890,34065,-0.84,-0.64,0.09,10.58,3358
16:34:48.906,34075,-0.90,-0.53,0.15,10.53,3359
16:34:48.911,34085,-0.86,-0.53,0.15,10.26,3360
16:34:48.922,34095,-0.81,-0.62,0.12,10.26,3361
16:34:48.933,34105,-0.79,-0.68,0.03,10.45,3362
16:34:48.943,34115,-0.83,-0.68,0.01,10.72,3363
16:34:48.950,34125,-0.91,-0.63,-0.00,11.03,3364
16:34:48.981,34135,-0.99,-0.55,0.00,11.33,3365
16:34:48.982,34145,-1.05,-0.45,-0.02,11.38,3366
16:34:48.983,34155,-1.11,-0.40,-0.06,11.80,3367
16:34:48.992,34165,-1.14,-0.41,-0.08,12.19,3368
16:34:49.003,34175,-1.19,-0.67,-0.10,13.65,3369
16:34:49.050,34185,-1.31,-0.84,0.00,15.60,3370
16:34:49.050,34195,-1.64,-0.67,-0.09,17.74,3371
16:34:49.051,34205,-1.72,-0.44,-0.30,17.95,3372
16:34:49.053,34215,-1.74,-0.25,-0.48,18.26,3373
16:34:49.054,34225,-1.55,-0.55,-0.51,17.20,3374
16:34:49.090,34235,-1.37,-0.88,-0.12,16.31,3375
16:34:49.093,34245,-1.20,-1.09,0.00,16.26,3376
16:34:49.094,34255,-0.92,-1.17,0.10,14.91,3377
16:34:49.096,34265,-0.62,-1.24,0.27,14.12,3378
16:34:49.131,34275,-0.53,-1.36,0.45,15.25,3379
16:34:49.133,34285,-0.49,-1.42,0.79,16.99,3380
16:34:49.165,34295,-0.53,-1.38,0.91,17.32,3381
16:34:49.166,34305,-0.54,-1.20,0.86,15.68,3382
16:34:49.206,34315,-0.45,-0.96,0.98,14.49,3383
16:34:49.206,34325,-0.21,-0.81,1.32,15.61,3384
16:34:49.207,34335,-0.11,-0.65,1.50,16.38,3385
16:34:49.208,34345,-0.29,-0.40,1.20,12.95,3386
16:34:49.210,34355,-0.49,-0.21,0.86,10.17,3387
16:34:49.248,34365,-0.56,-0.13,0.71,9.15,3388
16:34:49.248,34375,-0.48,-0.40,0.62,8.77,3389
16:34:49.248,34385,-0.35,-0.66,0.53,9.15,3390
16:34:49.250,34395,-0.18,-0.89,0.62,10.98,3391
16:34:49.250,34405,0.02,-0.85,0.64,10.65,3392
16:34:49.252,34415,0.18,-0.76,0.57,9.64,3393
16:34:49.252,34425,0.25,-0.67,0.57,9.11,3394
16:34:49.261,34435,0.12,-0.57,0.67,8.82,3395
16:34:49.276,34445,-0.04,-0.43,0.69,8.20,3396
16:34:49.281,34455,-0.16,-0.36,0.70,8.05,3397
16:34:49.298,34465,-0.21,-0.30,0.74,8.30,3398
16:34:49.301,34475,-0.18,-0.30,0.78,8.55,3399
16:34:49.312,34485,-0.06,-0.31,0.79,8.51,3400
16:34:49.320,34495,0.06,-0.38,0.77,8.60,3401
16:34:49.334,34505,0.06,-0.37,0.66,7.61,3402
16:34:49.340,34515,-0.03,-0.35,0.61,7.00,3403
16:34:49.355,34525,-0.14,-0.31,0.61,7.01,3404
16:34:49.363,34535,-0.23,-0.31,0.62,7.34,3405
16:34:49.370,34545,-0.32,-0.30,0.56,7.11,3406
16:34:49.381,34555,-0.33,-0.35,0.59,7.62,3407
16:34:49.391,34565,-0.31,-0.35,0.64,7.90,3408
16:34:49.408,34575,-0.42,-0.45,0.66,9.03,3409
16:34:49.419,34585,-0.59,-0.63,0.62,10.64,3410
16:34:49.423,34595,-0.69,-0.76,0.58,11.78,3411
16:34:49.430,34605,-0.64,-0.81,0.48,11.39,3412
16:34:49.445,34615,-0.66,-0.72,0.34,10.32,3413
16:34:49.451,34625,-0.67,-0.59,0.26,9.30,3414
16:34:49.460,34635,-0.81,-0.62,0.16,10.35,3415
16:34:49.474,34645,-0.84,-0.52,0.26,10.20,3416
16:34:49.482,34655,-0.84,-0.39,0.13,9.32,3417
16:34:49.491,34665,-0.80,-0.13,-0.12,8.23,3418
16:34:49.500,34675,-0.82,0.05,-0.72,10.98,3419
16:34:49.510,34685,-0.88,0.38,-0.96,13.58,3420
16:34:49.522,34695,-0.93,0.37,-1.27,16.16,3421
16:34:49.530,34705,-0.85,0.14,-1.21,14.85,3422
16:34:49.541,34715,-0.75,-0.11,-0.89,11.72,3423
16:34:49.550,34725,-0.59,-0.32,-0.27,7.20,3424
16:34:49.570,34735,-0.40,-0.70,-0.29,8.55,3425
16:34:49.570,34745,-0.31,-0.77,-0.05,8.37,3426
16:34:49.581,34755,-0.43,-0.91,0.13,10.15,3427
16:34:49.592,34765,-0.70,-0.94,0.17,11.82,3428
16:34:49.602,34775,-1.07,-0.81,0.16,13.56,3429
16:34:49.615,34785,-1.60,-0.60,0.10,17.09,3430
16:34:49.620,34795,-1.88,-0.25,0.09,18.95,3431
16:34:49.634,34805,-2.02,0.11,0.06,20.28,3432
16:34:49.728,34815,-1.92,0.28,-0.12,19.43,3433
16:34:49.729,34825,-1.26,-0.28,-0.09,12.97,3434
16:34:49.729,34835,-0.79,-0.61,0.26,10.34,3435
16:34:49.731,34845,-0.39,-0.96,0.19,10.54,3436
16:34:49.731,34855,-0.33,-1.07,-0.06,11.23,3437
