time,timestamps,ax,ay,az,mag,time2
15:29:21.997,152485,-0.68,0.00,-1.24,14.14,15200
15:29:22.011,152495,-0.66,0.14,-1.22,13.99,15201
15:29:22.017,152505,-0.57,0.24,-1.18,13.31,15202
15:29:22.033,152515,-0.49,0.27,-1.10,12.39,15203
15:29:22.038,152525,-0.46,0.21,-1.13,12.38,15204
15:29:22.051,152535,-0.46,0.14,-1.10,12.00,15205
15:29:22.057,152545,-0.41,0.05,-1.13,11.98,15206
15:29:22.075,152555,-0.49,0.08,-1.15,12.50,15207
15:29:22.077,152565,-0.53,0.07,-1.14,12.54,15208
15:29:22.133,152575,-0.53,0.15,-1.12,12.43,15209
15:29:22.134,152585,-0.53,0.19,-1.10,12.39,15210
15:29:22.136,152595,-0.48,0.20,-1.09,12.09,15211
15:29:22.137,152605,-0.52,0.17,-1.11,12.33,15212
15:29:22.138,152615,-0.58,0.11,-1.10,12.47,15213
15:29:22.174,152625,-0.64,0.06,-1.12,12.93,15214
15:29:22.174,152635,-0.64,-0.00,-1.14,13.05,15215
15:29:22.175,152645,-0.59,-0.09,-1.12,12.65,15216
15:29:22.176,152655,-0.58,-0.14,-1.09,12.45,15217
15:29:22.178,152665,-0.56,-0.23,-1.00,11.69,15218
15:29:22.216,152675,-0.67,-0.24,-0.99,12.17,15219
15:29:22.216,152685,-0.79,-0.19,-0.92,12.26,15220
15:29:22.217,152695,-0.94,-0.12,-0.90,13.01,15221
15:29:22.217,152705,-1.09,-0.06,-0.86,13.88,15222
15:29:22.253,152715,-1.14,-0.07,-0.85,14.25,15223
15:29:22.253,152725,-1.07,-0.12,-0.66,12.61,15224
15:29:22.253,152735,-0.98,-0.26,-0.49,11.28,15225
15:29:22.257,152745,-0.88,-0.32,-0.39,10.19,15226
15:29:22.293,152755,-0.77,-0.44,-0.34,9.52,15227
15:29:22.294,152765,-0.87,-0.50,-0.45,11.07,15228
15:29:22.295,152775,-0.81,-0.52,-0.37,10.29,15229
15:29:22.296,152785,-0.55,-0.57,-0.15,8.04,15230
15:29:22.320,152795,-0.23,-0.57,0.42,7.48,15231
15:29:22.321,152805,-0.03,-0.76,0.48,8.99,15232
15:29:22.326,152815,-0.09,-0.75,0.42,8.63,15233
15:29:22.355,152825,-0.44,-0.69,0.21,8.46,15234
15:29:22.355,152835,-0.72,-0.41,-0.07,8.31,15235
15:29:22.360,152845,-0.91,-0.11,-0.27,9.58,15236
15:29:22.369,152855,-0.96,0.11,-0.55,11.13,15237
15:29:22.379,152865,-1.34,-0.22,-0.69,15.23,15238
15:29:22.388,152875,-1.59,-1.07,-0.99,21.55,15239
15:29:22.397,152885,-1.28,-2.00,-0.93,25.55,15240
15:29:22.409,152895,-0.58,-2.00,-0.71,22.04,15241
15:29:22.418,152905,-0.28,-1.36,-0.53,14.86,15242
15:29:22.437,152915,-0.79,-1.62,-0.91,20.17,15243
15:29:22.437,152925,-1.13,-0.88,-0.68,15.90,15244
15:29:22.448,152935,-1.65,0.08,-0.45,17.15,15245
15:29:22.462,152945,-1.85,0.47,-0.37,19.46,15246
15:29:22.467,152955,-1.56,0.12,-0.58,16.70,15247
15:29:22.477,152965,-1.00,-0.61,-0.61,13.21,15248
15:29:22.487,152975,-0.70,-1.06,-0.51,13.64,15249
15:29:22.499,152985,-0.72,-0.72,-0.39,10.92,15250
15:29:22.511,152995,-0.72,-0.58,-0.42,10.12,15251
15:29:22.517,153005,-1.12,-0.35,-0.41,12.46,15252
15:29:22.533,153015,-1.16,-0.24,-0.27,12.11,15253
15:29:22.538,153025,-1.15,-0.30,-0.16,11.95,15254
15:29:22.547,153035,-1.09,-0.38,-0.14,11.60,15255
15:29:22.565,153045,-0.95,-0.47,-0.17,10.70,15256
15:29:22.568,153055,-0.96,-0.46,-0.21,10.82,15257
15:29:22.581,153065,-0.97,-0.46,-0.28,11.04,15258
15:29:22.593,153075,-0.93,-0.51,-0.32,11.12,15259
15:29:22.597,153085,-0.91,-0.55,-0.32,11.09,15260
15:29:22.608,153095,-0.86,-0.61,-0.30,10.96,15261
15:29:22.618,153105,-0.83,-0.64,-0.30,10.92,15262
15:29:22.634,153115,-0.83,-0.62,-0.28,10.70,15263
15:29:22.642,153125,-0.84,-0.56,-0.28,10.46,15264
15:29:22.648,153135,-0.83,-0.52,-0.32,10.31,15265
15:29:22.657,153145,-0.84,-0.52,-0.36,10.53,15266
15:29:22.671,153155,-0.86,-0.54,-0.38,10.89,15267
15:29:22.677,153165,-0.90,-0.55,-0.43,11.40,15268
15:29:22.686,153175,-0.93,-0.53,-0.49,11.82,15269
15:29:22.697,153185,-0.90,-0.52,-0.51,11.60,15270
15:29:22.706,153195,-0.85,-0.52,-0.54,11.32,15271
15:29:22.725,153205,-0.92,-0.54,-0.55,11.99,15272
15:29:22.726,153215,-0.97,-0.53,-0.48,12.06,15273
15:29:22.741,153225,-1.03,-0.38,-0.42,11.74,15274
15:29:22.746,153235,-1.02,-0.31,-0.46,11.58,15275
15:29:22.763,153245,-1.04,-0.33,-0.44,11.71,15276
15:29:22.767,153255,-0.99,-0.39,-0.47,11.60,15277
15:29:22.805,153265,-0.89,-0.49,-0.47,11.22,15278
15:29:22.807,153275,-0.86,-0.61,-0.50,11.67,15279
15:29:22.809,153285,-0.89,-0.58,-0.45,11.55,15280
15:29:22.809,153295,-0.94,-0.50,-0.40,11.31,15281
15:29:22.845,153305,-0.97,-0.43,-0.34,11.13,15282
15:29:22.846,153315,-0.95,-0.44,-0.32,11.00,15283
15:29:22.847,153325,-0.92,-0.50,-0.33,11.01,15284
15:29:22.850,153335,-0.88,-0.55,-0.36,10.97,15285
15:29:22.887,153345,-0.87,-0.58,-0.37,11.06,15286
15:29:22.889,153355,-0.90,-0.56,-0.38,11.27,15287
15:29:22.891,153365,-0.95,-0.56,-0.38,11.64,15288
15:29:22.891,153375,-0.98,-0.56,-0.37,11.84,15289
15:29:22.928,153385,-0.96,-0.56,-0.33,11.61,15290
15:29:22.929,153395,-0.92,-0.54,-0.30,11.09,15291
15:29:22.931,153405,-0.87,-0.52,-0.28,10.51,15292
15:29:22.933,153415,-0.86,-0.48,-0.20,10.06,15293
15:29:22.971,153425,-0.82,-0.47,-0.13,9.58,15294
15:29:22.971,153435,-0.77,-0.44,-0.14,8.99,15295
15:29:22.972,153445,-0.50,-0.35,-0.02,6.06,15296
15:29:22.973,153455,-0.79,-0.48,-0.05,9.30,15297
15:29:22.976,153465,-0.88,-0.55,-0.05,10.36,15298
15:29:23.003,153475,-0.90,-0.76,-0.18,11.92,15299
15:29:23.004,153485,-0.83,-1.00,-0.30,13.36,15300
15:29:23.006,153495,-0.53,-1.01,-0.84,14.15,15301
15:29:23.019,153505,-0.78,-0.97,-0.36,12.94,15302
15:29:23.034,153515,-0.92,-1.08,-0.45,14.90,15303
15:29:23.036,153525,-0.96,-1.02,-0.57,15.11,15304
15:29:23.046,153535,-1.05,-0.73,-0.66,14.40,15305
15:29:23.061,153545,-1.29,-0.46,-0.75,15.60,15306
15:29:23.068,153555,-1.39,-0.56,-0.70,16.52,15307
15:29:23.078,153565,-1.37,-0.37,-0.80,16.29,15308
15:29:23.087,153575,-1.41,-0.11,-0.92,16.83,15309
15:29:23.097,153585,-1.48,0.00,-1.04,18.04,15310
15:29:23.108,153595,-1.36,0.12,-1.14,17.78,15311
15:29:23.118,153605,-1.37,0.16,-1.27,18.75,15312
15:29:23.127,153615,-1.39,0.32,-1.12,18.13,15313
15:29:23.137,153625,-1.38,0.49,-1.15,18.61,15314
15:29:23.152,153635,-1.27,0.34,-1.22,17.94,15315
15:29:23.156,153645,-1.05,-0.05,-1.26,16.41,15316
15:29:23.165,153655,-0.80,-0.39,-1.31,15.84,15317
15:29:23.176,153665,-0.74,-0.34,-1.38,16.02,15318
15:29:23.187,153675,-0.54,-0.32,-1.15,13.06,15319
15:29:23.229,153685,-0.50,-0.17,-1.14,12.56,15320
15:29:23.229,153695,-0.51,-0.09,-1.15,12.64,15321
15:29:23.230,153705,-0.54,-0.01,-1.14,12.62,15322
15:29:23.231,153715,-0.63,0.07,-1.14,13.04,15323
15:29:23.236,153725,-0.70,0.17,-1.18,13.83,15324
15:29:23.249,153735,-0.68,0.18,-1.17,13.63,15325
15:29:23.258,153745,-0.61,0.20,-1.18,13.41,15326
15:29:23.268,153755,-0.56,0.20,-1.21,13.50,15327
15:29:23.275,153765,-0.53,0.14,-1.25,13.69,15328
15:29:23.289,153775,-0.49,0.10,-1.27,13.63,15329
15:29:23.296,153785,-0.49,0.07,-1.29,13.76,15330
15:29:23.311,153795,-0.49,0.06,-1.27,13.64,15331
15:29:23.318,153805,-0.55,0.06,-1.27,13.83,15332
15:29:23.326,153815,-0.64,0.09,-1.24,14.01,15333
15:29:23.337,153825,-0.70,0.14,-1.19,13.85,15334
15:29:23.350,153835,-0.75,0.16,-1.16,13.90,15335
15:29:23.358,153845,-0.80,0.15,-1.13,13.94,15336
15:29:23.367,153855,-0.88,0.18,-1.13,14.46,15337
15:29:23.381,153865,-0.94,0.15,-1.10,14.56,15338
15:29:23.387,153875,-0.95,0.08,-1.06,14.27,15339
15:29:23.404,153885,-0.90,-0.01,-1.03,13.67,15340
15:29:23.407,153895,-0.82,-0.18,-1.01,13.11,15341
15:29:23.419,153905,-0.68,-0.38,-0.97,12.43,15342
15:29:23.427,153915,-0.64,-0.57,-0.88,12.31,15343
15:29:23.439,153925,-0.73,-0.69,-0.81,12.93,15344
15:29:23.447,153935,-0.73,-0.64,-0.71,12.08,15345
15:29:23.456,153945,-0.88,-0.52,-0.48,11.28,15346
15:29:23.466,153955,-0.97,-0.27,-0.25,10.36,15347
15:29:23.476,153965,-0.94,-0.05,-0.35,10.00,15348
15:29:23.487,153975,-0.80,-0.07,-0.42,9.05,15349
15:29:23.496,153985,-0.69,-0.23,-0.49,8.78,15350
15:29:23.510,153995,-0.63,-0.39,-0.51,9.01,15351
15:29:23.519,154005,-0.80,-0.48,-0.46,10.39,15352
15:29:23.529,154015,-1.07,-0.58,-0.57,13.43,15353
15:29:23.583,154025,-1.18,-0.80,-0.65,15.64,15354
15:29:23.583,154035,-1.01,-0.92,-0.56,14.74,15355
15:29:23.584,154045,-0.67,-0.63,-0.49,10.42,15356
15:29:23.586,154055,-0.55,-0.57,-0.44,9.08,15357
15:29:23.587,154065,-0.70,-0.74,-0.34,10.72,15358
15:29:23.588,154075,-0.85,-0.74,-0.66,13.10,15359
15:29:23.622,154085,-0.94,-0.68,-0.62,13.14,15360
15:29:23.622,154095,-0.92,-0.49,-0.51,11.67,15361
15:29:23.623,154105,-0.91,-0.51,-0.44,11.32,15362
15:29:23.627,154115,-0.93,-0.49,-0.49,11.57,15363
15:29:23.663,154125,-0.96,-0.51,-0.51,11.99,15364
15:29:23.665,154135,-0.96,-0.52,-0.53,12.10,15365
15:29:23.665,154145,-0.94,-0.54,-0.50,11.97,15366
15:29:23.666,154155,-0.92,-0.54,-0.51,11.82,15367
15:29:23.704,154165,-0.91,-0.54,-0.52,11.78,15368
15:29:23.705,154175,-0.91,-0.55,-0.54,11.93,15369
15:29:23.706,154185,-0.90,-0.59,-0.51,11.90,15370
15:29:23.707,154195,-0.89,-0.58,-0.49,11.72,15371
15:29:23.747,154205,-0.90,-0.59,-0.47,11.75,15372
15:29:23.747,154215,-0.87,-0.66,-0.31,11.30,15373
15:29:23.747,154225,-0.95,-0.64,-0.52,12.56,15374
15:29:23.749,154235,-0.89,-0.60,-0.36,11.31,15375
15:29:23.780,154245,-0.88,-0.59,-0.33,11.09,15376
15:29:23.780,154255,-0.85,-0.61,-0.31,10.91,15377
15:29:23.781,154265,-0.84,-0.65,-0.29,11.02,15378
15:29:23.799,154275,-0.82,-0.67,-0.29,10.93,15379
15:29:23.800,154285,-0.81,-0.67,-0.29,10.93,15380
15:29:23.812,154295,-0.84,-0.67,-0.32,11.20,15381
15:29:23.823,154305,-0.88,-0.65,-0.36,11.51,15382
15:29:23.829,154315,-0.87,-0.63,-0.39,11.45,15383
15:29:23.840,154325,-0.89,-0.59,-0.44,11.58,15384
15:29:23.846,154335,-0.90,-0.57,-0.43,11.54,15385
15:29:23.855,154345,-0.90,-0.57,-0.46,11.62,15386
15:29:23.865,154355,-0.89,-0.57,-0.46,11.50,15387
15:29:23.879,154365,-0.88,-0.56,-0.47,11.44,15388
15:29:23.889,154375,-0.88,-0.57,-0.48,11.52,15389
15:29:23.897,154385,-0.88,-0.57,-0.48,11.56,15390
15:29:23.910,154395,-0.90,-0.56,-0.48,11.67,15391
15:29:23.924,154405,-0.92,-0.56,-0.48,11.74,15392
15:29:23.930,154415,-0.91,-0.54,-0.48,11.63,15393
15:29:23.939,154425,-0.92,-0.53,-0.48,11.62,15394
15:29:23.949,154435,-0.92,-0.53,-0.49,11.69,15395
15:29:23.962,154445,-0.92,-0.52,-0.50,11.67,15396
15:29:23.967,154455,-0.92,-0.52,-0.50,11.70,15397
15:29:23.975,154465,-0.92,-0.52,-0.52,11.84,15398
15:29:23.986,154475,-0.91,-0.53,-0.52,11.78,15399
15:29:24.003,154485,-0.92,-0.54,-0.52,11.85,15400
15:29:24.006,154495,-0.91,-0.54,-0.51,11.72,15401
15:29:24.016,154505,-0.90,-0.54,-0.50,11.70,15402
15:29:24.028,154515,-0.90,-0.56,-0.48,11.67,15403
15:29:24.041,154525,-0.89,-0.57,-0.47,11.59,15404
15:29:24.047,154535,-0.90,-0.57,-0.45,11.56,15405
15:29:24.059,154545,-0.88,-0.58,-0.44,11.45,15406
15:29:24.074,154555,-0.88,-0.59,-0.42,11.38,15407
15:29:24.077,154565,-0.87,-0.59,-0.41,11.29,15408
15:29:24.090,154575,-0.88,-0.59,-0.40,11.35,15409
15:29:24.099,154585,-0.89,-0.59,-0.40,11.37,15410
15:29:24.110,154595,-0.89,-0.58,-0.42,11.43,15411
15:29:24.117,154605,-0.89,-0.59,-0.44,11.49,15412
15:29:24.128,154615,-0.88,-0.58,-0.45,11.44,15413
15:29:24.139,154625,-0.89,-0.59,-0.46,11.57,15414
15:29:24.151,154635,-0.90,-0.57,-0.46,11.59,15415
15:29:24.166,154645,-0.90,-0.56,-0.46,11.58,15416
15:29:24.172,154655,-0.91,-0.54,-0.47,11.56,15417

