time,timestamp,ax,ay,az,mag,time2
17:54:00.634,2872,-0.90,0.50,0.04,10.26,239
17:54:00.642,2862,-0.90,0.50,0.04,10.34,238
17:54:00.644,2882,-0.91,0.51,0.05,10.40,240
17:54:00.654,2892,-0.91,0.51,0.03,10.42,241
17:54:00.665,2902,-0.90,0.51,0.03,10.38,242
17:54:00.674,2912,-0.90,0.50,0.02,10.30,243
17:54:00.685,2922,-0.90,0.50,0.01,10.25,244
17:54:00.699,2932,-0.91,0.50,0.01,10.37,245
17:54:00.704,2942,-0.91,0.51,0.01,10.42,246
17:54:00.719,2952,-0.91,0.51,0.03,10.45,247
17:54:00.723,2962,-0.90,0.51,0.03,10.38,248
17:54:00.735,2972,-0.91,0.52,0.04,10.48,249
17:54:00.751,2982,-0.90,0.51,0.04,10.38,250
17:54:00.753,2992,-0.90,0.51,0.06,10.37,251
17:54:00.767,3002,-0.90,0.51,0.05,10.37,252
17:54:00.774,3012,-0.90,0.51,0.05,10.32,253
17:54:00.784,3022,-0.91,0.52,0.04,10.47,254
17:54:00.793,3032,-0.90,0.51,0.05,10.35,255
17:54:00.826,3042,-0.90,0.51,0.04,10.38,256
17:54:00.826,3052,-0.91,0.50,0.04,10.34,257
17:54:00.827,3062,-0.90,0.51,0.04,10.34,258
17:54:00.834,3072,-0.89,0.50,0.03,10.26,259
17:54:00.844,3082,-0.90,0.51,0.04,10.38,260
17:54:00.911,3092,-0.89,0.52,0.04,10.32,261
17:54:00.912,3102,-0.89,0.51,0.05,10.28,262
17:54:00.912,3112,-0.89,0.52,0.05,10.28,263
17:54:00.912,3122,-0.89,0.52,0.05,10.34,264
17:54:00.914,3132,-0.90,0.51,0.06,10.40,265
17:54:00.916,3142,-0.90,0.51,0.06,10.35,266
17:54:00.918,3152,-0.90,0.51,0.05,10.34,267
17:54:00.924,3162,-0.89,0.51,0.06,10.30,268
17:54:00.935,3172,-0.89,0.51,0.06,10.32,269
17:54:00.946,3182,-0.90,0.51,0.07,10.37,270
17:54:00.954,3192,-0.89,0.51,0.07,10.26,271
17:54:00.964,3202,-0.89,0.51,0.06,10.26,272
17:54:00.974,3212,-0.90,0.51,0.06,10.34,273
17:54:00.985,3222,-0.89,0.50,0.07,10.24,274
17:54:00.995,3232,-0.88,0.51,0.06,10.22,275
17:54:01.039,3242,-0.90,0.51,0.06,10.32,276
17:54:01.039,3252,-0.91,0.50,0.07,10.38,277
17:54:01.040,3262,-0.91,0.50,0.05,10.34,278
17:54:01.041,3272,-0.90,0.50,0.04,10.33,279
17:54:01.043,3282,-0.92,0.49,0.03,10.42,280
17:54:01.077,3292,-0.93,0.48,0.03,10.47,281
17:54:01.078,3302,-0.94,0.48,0.03,10.54,282
17:54:01.080,3312,-0.93,0.50,0.03,10.59,283
17:54:01.083,3322,-0.92,0.49,0.02,10.45,284
17:54:01.119,3332,-0.92,0.50,0.01,10.51,285
17:54:01.120,3342,-0.92,0.49,-0.01,10.47,286
17:54:01.120,3352,-0.92,0.49,-0.01,10.40,287
17:54:01.124,3362,-0.93,0.49,-0.03,10.57,288
17:54:01.159,3372,-0.94,0.50,-0.05,10.60,289
17:54:01.159,3382,-0.93,0.50,-0.07,10.62,290
17:54:01.160,3392,-0.93,0.51,-0.10,10.67,291
17:54:01.164,3402,-0.92,0.51,-0.12,10.63,292
17:54:01.199,3412,-0.93,0.50,-0.16,10.64,293
17:54:01.201,3422,-0.94,0.50,-0.20,10.78,294
17:54:01.203,3432,-0.93,0.51,-0.25,10.92,295
17:54:01.204,3442,-0.93,0.51,-0.29,10.97,296
17:54:01.239,3452,-0.91,0.53,-0.33,11.05,297
17:54:01.239,3462,-0.89,0.56,-0.38,11.16,298
17:54:01.240,3472,-0.88,0.57,-0.42,11.35,299
17:54:01.244,3482,-0.90,0.56,-0.48,11.69,300
17:54:01.260,3492,-0.93,0.53,-0.54,11.99,301
17:54:01.264,3502,-0.96,0.49,-0.56,12.16,302
17:54:01.278,3512,-0.97,0.49,-0.53,12.06,303
17:54:01.282,3522,-0.97,0.53,-0.47,11.97,304
17:54:01.297,3532,-0.98,0.61,-0.36,12.09,305
17:54:01.305,3542,-1.01,0.63,-0.25,12.18,306
17:54:01.316,3552,-1.07,0.67,-0.12,12.72,307
17:54:01.323,3562,-1.13,0.69,-0.03,13.25,308
17:54:01.333,3572,-1.21,0.66,0.19,13.89,309
17:54:01.343,3582,-1.24,0.73,0.15,14.46,310
17:54:01.353,3592,-1.22,0.70,0.24,14.30,311
17:54:01.363,3602,-1.16,0.62,0.35,13.66,312
17:54:01.393,3612,-1.13,0.54,0.40,13.10,313
17:54:01.394,3622,-1.05,0.48,0.41,12.19,314
17:54:01.395,3632,-0.93,0.53,0.38,11.41,315
17:54:01.403,3642,-0.83,0.63,0.37,11.05,316
17:54:01.413,3652,-0.78,0.71,0.34,11.10,317
17:54:01.424,3662,-0.71,0.76,0.33,10.91,318
17:54:01.433,3672,-0.68,0.72,0.29,10.29,319
17:54:01.449,3682,-0.69,0.64,0.26,9.75,320
17:54:01.453,3692,-0.73,0.57,0.23,9.50,321
17:54:01.463,3702,-0.79,0.47,0.22,9.48,322
17:54:01.474,3712,-0.81,0.49,0.20,9.67,323
17:54:01.484,3722,-0.85,0.49,0.24,10.12,324
17:54:01.500,3732,-0.83,0.49,0.16,9.74,325
17:54:01.504,3742,-0.85,0.53,0.15,10.16,326
17:54:01.512,3752,-0.84,0.50,0.11,9.89,327
17:54:01.523,3762,-0.86,0.54,0.12,10.20,328
17:54:01.533,3772,-0.84,0.53,0.10,10.02,329
17:54:01.543,3782,-0.84,0.59,0.11,10.28,330
17:54:01.553,3792,-0.84,0.58,0.03,10.23,331
17:54:01.563,3802,-0.84,0.59,0.03,10.28,332
17:54:01.581,3812,-0.82,0.58,0.02,10.06,333
17:54:01.584,3822,-0.80,0.56,0.00,9.80,334
17:54:01.602,3832,-0.84,0.54,0.01,10.00,335
17:54:01.602,3842,-0.81,0.51,-0.04,9.58,336
17:54:01.618,3852,-0.84,0.47,-0.04,9.59,337
17:54:01.623,3862,-0.86,0.44,-0.03,9.69,338
17:54:01.640,3872,-0.89,0.43,-0.02,9.94,339
17:54:01.644,3882,-0.88,0.45,-0.03,9.86,340
17:54:01.654,3892,-0.85,0.44,-0.11,9.65,341
17:54:01.665,3902,-0.80,0.43,-0.16,9.26,342
17:54:01.674,3912,-0.76,0.43,-0.21,8.99,343
17:54:01.683,3922,-0.72,0.45,-0.27,8.92,344
17:54:01.693,3932,-0.68,0.50,-0.39,9.36,345
17:54:01.703,3942,-0.64,0.52,-0.53,9.84,346
17:54:01.714,3952,-0.60,0.48,-0.62,9.84,347
17:54:01.729,3962,-0.66,0.37,-0.57,9.47,348
17:54:01.733,3972,-0.79,0.24,-0.40,9.12,349
17:54:01.744,3982,-0.87,0.18,-0.20,9.11,350
17:54:01.752,3992,-0.87,0.16,-0.06,8.91,351
17:54:01.797,4002,-0.84,0.15,0.04,8.59,352
17:54:01.798,4012,-0.89,0.25,0.08,9.28,353
17:54:01.799,4022,-0.91,0.29,0.06,9.59,354
17:54:01.800,4032,-1.01,0.37,-0.01,10.77,355
17:54:01.834,4042,-0.99,0.74,-0.06,12.41,356
17:54:01.836,4052,-0.95,1.24,-0.09,15.65,357
17:54:01.836,4062,-0.88,1.43,-0.29,17.05,358
17:54:01.838,4072,-0.98,1.09,-0.34,15.05,359
17:54:01.875,4082,-1.09,0.79,-0.32,13.85,360
17:54:01.879,4092,-1.08,0.80,-0.07,13.44,361
17:54:01.879,4102,-0.96,0.91,0.07,13.28,362
17:54:01.879,4112,-0.93,0.85,0.15,12.69,363
17:54:01.917,4122,-1.01,0.60,0.21,11.89,364
17:54:01.917,4132,-1.07,0.39,0.22,11.60,365
17:54:01.920,4142,-1.09,0.31,0.13,11.38,366
17:54:01.920,4152,-1.07,0.26,-0.01,11.04,367
17:54:01.959,4162,-0.99,0.25,-0.16,10.37,368
17:54:01.959,4172,-0.97,0.24,-0.19,10.15,369
17:54:01.960,4182,-0.93,0.41,-0.28,10.56,370
17:54:01.961,4192,-0.93,0.54,-0.32,11.24,371
17:54:01.963,4202,-0.94,0.55,-0.30,11.28,372
17:54:01.996,4212,-0.96,0.49,-0.23,11.04,373
17:54:01.996,4222,-0.99,0.41,-0.15,10.85,374
17:54:01.999,4232,-1.03,0.35,-0.08,10.91,375
17:54:02.005,4242,-1.04,0.33,-0.04,10.91,376
17:54:02.017,4252,-1.01,0.30,0.04,10.50,377
17:54:02.027,4262,-1.01,0.31,0.00,10.57,378
17:54:02.034,4272,-1.03,0.32,-0.01,10.82,379
17:54:02.050,4282,-1.03,0.35,0.03,10.83,380
17:54:02.054,4292,-1.00,0.38,0.05,10.65,381
17:54:02.064,4302,-0.97,0.41,0.05,10.52,382
17:54:02.073,4312,-0.96,0.43,0.05,10.54,383
17:54:02.106,4322,-0.95,0.42,0.04,10.42,384
17:54:02.106,4332,-0.94,0.42,0.04,10.31,385
17:54:02.108,4342,-0.96,0.36,0.05,10.29,386
17:54:02.119,4352,-0.96,0.35,0.08,10.21,387
17:54:02.125,4362,-0.94,0.37,0.09,10.14,388
17:54:02.137,4372,-0.95,0.37,0.05,10.19,389
17:54:02.148,4382,-0.95,0.35,-0.01,10.12,390
17:54:02.155,4392,-0.93,0.33,-0.06,9.86,391
17:54:02.221,4402,-0.90,0.37,-0.10,9.80,392
17:54:02.221,4412,-0.92,0.43,-0.07,10.20,393
17:54:02.223,4422,-0.89,0.56,-0.04,10.51,394
17:54:02.224,4432,-0.89,0.58,-0.03,10.66,395
17:54:02.227,4442,-0.86,0.55,0.00,10.20,396
17:54:02.228,4452,-0.93,0.45,0.03,10.33,397
17:54:02.228,4462,-0.90,0.46,-0.01,10.14,398
17:54:02.234,4472,-0.92,0.46,0.03,10.32,399
17:54:02.248,4482,-0.92,0.48,0.03,10.39,400
17:54:02.253,4492,-0.93,0.45,0.03,10.34,401
17:54:02.270,4502,-0.93,0.43,0.03,10.28,402
17:54:02.274,4512,-0.95,0.43,0.03,10.40,403
17:54:02.283,4522,-0.95,0.45,0.06,10.53,404
17:54:02.297,4532,-0.93,0.48,0.07,10.49,405
17:54:02.305,4542,-0.94,0.49,0.10,10.60,406
17:54:02.316,4552,-0.97,0.45,0.11,10.73,407
17:54:02.326,4562,-0.99,0.42,0.14,10.82,408
17:54:02.334,4572,-0.96,0.43,0.14,10.64,409
17:54:02.343,4582,-0.97,0.46,0.12,10.76,410
17:54:02.353,4592,-0.97,0.45,0.10,10.78,411
17:54:02.363,4602,-1.01,0.48,0.11,11.26,412
17:54:02.373,4612,-1.04,0.55,0.08,11.74,413
17:54:02.385,4622,-1.06,0.55,0.02,11.93,414
17:54:02.393,4632,-1.05,0.49,-0.06,11.62,415
17:54:02.410,4642,-1.02,0.47,-0.10,11.25,416
17:54:02.414,4652,-1.02,0.45,-0.20,11.37,417
17:54:02.424,4662,-1.05,0.43,-0.15,11.42,418
17:54:02.435,4672,-1.05,0.42,-0.17,11.41,419
17:54:02.444,4682,-1.06,0.41,-0.21,11.54,420
17:54:02.456,4692,-1.09,0.43,-0.23,11.94,421
17:54:02.465,4702,-1.18,0.43,-0.24,12.78,422
17:54:02.476,4712,-1.21,0.51,-0.27,13.44,423
17:54:02.483,4722,-1.20,0.61,-0.28,13.78,424
17:54:02.493,4732,-1.16,0.68,-0.35,13.91,425
17:54:02.503,4742,-1.15,0.73,-0.39,14.16,426
17:54:02.519,4752,-1.14,0.78,-0.44,14.50,427
17:54:02.523,4762,-1.17,0.82,-0.38,14.74,428
17:54:02.560,4772,-1.21,0.91,-0.59,16.29,429
17:54:02.561,4782,-1.17,0.89,-0.65,16.11,430
17:54:02.563,4792,-1.14,0.78,-0.46,14.54,431
17:54:02.564,4802,-1.10,0.47,-0.26,12.28,432
17:54:02.594,4812,-1.19,0.33,0.03,12.34,433
17:54:02.595,4822,-1.16,0.39,0.58,13.51,434
17:54:02.596,4832,-1.17,0.50,0.96,15.96,435
17:54:02.628,4842,-1.42,0.44,1.18,18.99,436
17:54:02.629,4852,-1.52,0.37,1.07,18.99,437
17:54:02.631,4862,-1.33,0.20,1.02,16.89,438
17:54:02.634,4872,-1.03,0.17,0.95,14.06,439
17:54:02.670,4882,-0.79,0.30,0.88,12.18,440
17:54:02.670,4892,-0.67,0.43,0.88,11.84,441
17:54:02.672,4902,-0.51,0.44,0.93,11.44,442
17:54:02.672,4912,-0.44,0.41,0.75,9.60,443
17:54:02.712,4922,-0.50,0.44,0.67,9.46,444
17:54:02.713,4932,-0.43,0.42,0.86,10.50,445
17:54:02.714,4942,-0.35,0.53,1.13,12.93,446
17:54:02.715,4952,-0.46,0.59,0.53,9.15,447
17:54:02.751,4962,-0.47,0.34,0.69,8.98,448
17:54:02.755,4972,-0.37,0.23,0.71,8.30,449
17:54:02.755,4982,-0.30,0.18,0.63,7.21,450
17:54:02.769,4992,-0.30,0.24,0.66,7.65,451
17:54:02.771,5002,-0.32,0.31,0.64,7.81,452
17:54:02.774,5012,-0.31,0.34,0.59,7.48,453
17:54:02.785,5022,-0.31,0.28,0.64,7.63,454
17:54:02.793,5032,-0.33,0.25,0.69,8.00,455
17:54:02.810,5042,-0.33,0.24,0.68,7.92,456
17:54:02.815,5052,-0.35,0.22,0.67,7.90,457
17:54:02.824,5062,-0.31,0.22,0.69,7.91,458
17:54:02.839,5072,-0.34,0.19,0.72,8.19,459
17:54:02.843,5082,-0.35,0.24,0.71,8.25,460
17:54:02.853,5092,-0.37,0.30,0.76,8.94,461
17:54:02.863,5102,-0.38,0.36,0.75,9.16,462
17:54:02.876,5112,-0.38,0.40,0.67,8.73,463
17:54:02.885,5122,-0.39,0.44,0.61,8.47,464
17:54:02.896,5132,-0.40,0.44,0.60,8.47,465
17:54:02.903,5142,-0.45,0.41,0.58,8.40,466
17:54:02.913,5152,-0.53,0.40,0.63,9.17,467
17:54:02.923,5162,-0.61,0.38,0.64,9.63,468
17:54:02.933,5172,-0.72,0.36,0.66,10.39,469
17:54:02.943,5182,-0.75,0.35,0.62,10.38,470
17:54:02.964,5192,-0.79,0.33,0.54,10.17,471
17:54:02.968,5202,-0.80,0.33,0.46,9.83,472
17:54:02.974,5212,-0.76,0.39,0.40,9.41,473
17:54:02.993,5222,-0.73,0.48,0.30,9.26,474
17:54:02.995,5232,-0.85,0.51,0.21,10.11,475
17:54:03.003,5242,-0.81,0.56,0.15,9.95,476
17:54:03.020,5252,-0.93,0.47,0.19,10.57,477
17:54:03.024,5262,-1.04,0.27,0.15,10.84,478
17:54:03.033,5272,-0.99,0.11,-0.18,10.16,479
17:54:03.048,5282,-0.68,0.18,-0.66,9.70,480
17:54:03.053,5292,-0.30,0.35,-1.30,13.81,481
17:54:03.068,5302,-0.23,0.45,-1.08,11.93,482
17:54:03.073,5312,-0.66,0.21,-0.48,8.45,483
17:54:03.085,5322,-0.97,0.12,-0.11,9.83,484
17:54:03.096,5332,-1.04,-0.09,0.15,10.51,485
17:54:03.103,5342,-0.88,-0.20,0.35,9.66,486
17:54:03.113,5352,-0.96,0.27,0.24,10.28,487
17:54:03.124,5362,-1.21,1.11,0.03,16.42,488
17:54:03.138,5372,-1.30,1.62,-0.11,20.77,489
17:54:03.144,5382,-1.29,1.80,-0.43,22.56,490
17:54:03.152,5392,-1.12,1.33,-0.61,18.44,491
17:54:03.170,5402,-1.26,1.29,-0.17,18.13,492
17:54:03.176,5412,-1.25,0.66,0.14,14.20,493
17:54:03.183,5422,-1.24,0.08,0.35,12.88,494
17:54:03.193,5432,-1.12,0.07,0.53,12.45,495
17:54:03.207,5442,-0.92,0.47,0.42,11.20,496
17:54:03.213,5452,-0.96,0.57,0.27,11.53,497
17:54:03.255,5462,-0.97,0.54,0.18,11.23,498
17:54:03.258,5472,-0.94,0.34,-0.01,10.01,499
17:54:03.258,5482,-0.91,0.26,-0.17,9.64,500
17:54:03.258,5492,-0.90,0.19,-0.12,9.31,501
17:54:03.295,5502,-1.02,0.24,-0.16,10.61,502
17:54:03.297,5512,-1.10,0.32,-0.14,11.54,503
17:54:03.298,5522,-1.07,0.35,-0.12,11.30,504
17:54:03.299,5532,-1.04,0.30,-0.08,10.89,505
17:54:03.337,5542,-1.03,0.29,0.00,10.71,506
17:54:03.337,5552,-0.98,0.30,0.09,10.32,507
17:54:03.339,5562,-0.95,0.29,0.13,10.05,508
17:54:03.341,5572,-0.95,0.34,0.16,10.19,509
17:54:03.374,5582,-0.97,0.36,0.15,10.47,510
17:54:03.374,5592,-1.00,0.38,0.13,10.79,511
17:54:03.376,5602,-0.97,0.41,0.12,10.61,512
17:54:03.376,5612,-0.96,0.41,0.13,10.52,513
17:54:03.410,5622,-0.95,0.39,0.15,10.35,514
17:54:03.410,5632,-0.92,0.39,0.16,10.16,515
17:54:03.411,5642,-0.89,0.44,0.18,10.10,516
17:54:03.415,5652,-0.87,0.49,0.19,10.18,517
17:54:03.451,5662,-0.87,0.51,0.19,10.23,518
17:54:03.456,5672,-0.92,0.50,0.18,10.61,519
17:54:03.458,5682,-0.99,0.37,0.15,10.71,520
17:54:03.488,5692,-0.95,0.35,0.14,10.25,521
17:54:03.488,5702,-0.97,0.40,0.12,10.59,522
17:54:03.505,5712,-0.97,0.42,0.06,10.55,523
17:54:03.507,5722,-0.92,0.46,-0.00,10.31,524
17:54:03.538,5732,-0.92,0.49,-0.02,10.38,525
17:54:03.539,5742,-0.93,0.45,-0.06,10.40,526
17:54:03.541,5752,-0.95,0.41,-0.09,10.42,527
17:54:03.541,5762,-0.98,0.40,-0.12,10.64,528
17:54:03.543,5772,-0.99,0.40,-0.11,10.75,529
17:54:03.545,5782,-0.98,0.42,-0.10,10.71,530
17:54:03.557,5792,-0.96,0.48,-0.08,10.75,531
17:54:03.566,5802,-0.96,0.49,-0.06,10.78,532
17:54:03.575,5812,-0.98,0.50,-0.03,11.01,533
17:54:03.586,5822,-0.98,0.49,-0.01,10.94,534
17:54:03.597,5832,-0.98,0.45,-0.00,10.82,535
17:54:03.604,5842,-0.99,0.45,0.02,10.90,536
17:54:03.613,5852,-1.01,0.46,0.02,11.05,537
17:54:03.623,5862,-1.03,0.47,0.00,11.29,538
17:54:03.635,5872,-1.03,0.44,-0.04,11.22,539
17:54:03.649,5882,-1.02,0.43,-0.09,11.16,540
17:54:03.654,5892,-1.00,0.41,-0.12,10.88,541
17:54:03.663,5902,-0.98,0.38,-0.15,10.66,542
17:54:03.673,5912,-0.99,0.36,-0.16,10.64,543
17:54:03.686,5922,-1.01,0.35,-0.16,10.81,544
17:54:03.695,5932,-1.03,0.36,-0.17,11.03,545
17:54:03.704,5942,-1.06,0.42,-0.18,11.52,546
17:54:03.715,5952,-1.13,0.48,-0.19,12.46,547
17:54:03.724,5962,-1.17,0.59,-0.23,13.34,548
17:54:03.733,5972,-1.17,0.70,-0.26,13.86,549
17:54:03.745,5982,-1.16,0.75,-0.32,14.21,550
17:54:03.753,5992,-1.16,0.86,-0.34,14.83,551
17:54:03.762,6002,-1.24,0.94,-0.50,16.32,552
17:54:03.776,6012,-1.30,0.97,-0.92,18.63,553
17:54:03.782,6022,-1.38,0.87,-0.72,17.84,554
17:54:03.799,6032,-1.31,0.72,-0.49,15.70,555
17:54:03.803,6042,-1.22,0.51,-0.24,13.43,556
17:54:03.813,6052,-1.25,0.31,0.11,12.88,557
17:54:03.825,6062,-1.25,0.41,0.56,14.31,558
17:54:03.842,6072,-1.18,0.45,1.07,16.58,559
17:54:03.843,6082,-1.44,0.60,1.10,19.10,560
17:54:03.855,6092,-1.49,0.54,1.12,19.39,561
17:54:03.869,6102,-1.30,0.35,1.22,18.14,562
17:54:03.873,6112,-1.06,0.15,1.07,15.18,563
17:54:03.883,6122,-0.89,0.12,0.97,13.18,564
17:54:03.895,6132,-0.72,0.26,0.99,12.51,565
17:54:03.905,6142,-0.54,0.25,1.04,11.94,566
17:54:03.921,6152,-0.38,0.36,0.69,8.67,567
17:54:03.925,6162,-0.39,0.53,0.60,8.89,568
17:54:03.934,6172,-0.36,0.55,0.55,8.60,569
17:54:03.942,6182,-0.43,0.45,0.65,8.96,570
17:54:03.956,6192,-0.41,0.39,0.64,8.52,571
17:54:03.967,6202,-0.44,0.30,0.70,8.84,572
17:54:03.977,6212,-0.39,0.20,0.74,8.58,573
17:54:04.017,6222,-0.25,0.14,0.64,7.01,574
17:54:04.018,6232,-0.13,0.14,0.63,6.62,575
17:54:04.020,6242,-0.15,0.20,0.70,7.41,576
17:54:04.021,6252,-0.13,0.20,0.69,7.32,577
17:54:04.059,6262,-0.13,0.15,0.58,6.12,578
17:54:04.061,6272,-0.21,0.18,0.59,6.47,579
17:54:04.061,6282,-0.25,0.17,0.56,6.39,580
17:54:04.062,6292,-0.29,0.19,0.58,6.77,581
17:54:04.062,6302,-0.34,0.18,0.60,7.16,582
17:54:04.098,6312,-0.21,0.05,0.54,5.81,583
17:54:04.099,6322,-0.37,0.23,0.71,8.33,584
17:54:04.100,6332,-0.35,0.26,0.66,7.91,585
17:54:04.104,6342,-0.37,0.32,0.66,8.27,586
17:54:04.139,6352,-0.39,0.37,0.66,8.54,587
17:54:04.140,6362,-0.39,0.43,0.64,8.60,588
17:54:04.141,6372,-0.44,0.48,0.65,9.16,589
17:54:04.142,6382,-0.46,0.51,0.65,9.43,590
17:54:04.176,6392,-0.53,0.42,0.63,9.26,591
17:54:04.178,6402,-0.58,0.45,0.66,9.89,592
17:54:04.181,6412,-0.71,0.35,0.69,10.50,593
17:54:04.182,6422,-0.79,0.32,0.64,10.67,594
17:54:04.218,6432,-0.86,0.30,0.60,10.89,595
17:54:04.219,6442,-0.86,0.29,0.50,10.35,596
17:54:04.219,6452,-0.82,0.37,0.40,9.87,597
17:54:04.223,6462,-0.77,0.45,0.37,9.65,598
17:54:04.234,6472,-0.78,0.57,0.22,9.90,599
17:54:04.243,6482,-0.83,0.64,0.20,10.66,600
17:54:04.260,6492,-0.86,0.57,0.14,10.41,601
17:54:04.264,6502,-0.90,0.43,0.18,10.12,602
17:54:04.275,6512,-0.91,0.30,-0.04,9.63,603
17:54:04.283,6522,-0.70,0.29,-0.45,8.80,604
17:54:04.296,6532,-0.42,0.33,-1.01,11.42,605
17:54:04.304,6542,-0.27,0.29,-1.14,12.11,606
17:54:04.314,6552,-0.66,0.31,-0.73,10.34,607
17:54:04.324,6562,-0.96,0.13,-0.34,10.30,608
17:54:04.334,6572,-1.08,-0.03,-0.00,10.81,609
17:54:04.344,6582,-0.92,-0.10,0.17,9.39,610
17:54:04.356,6592,-0.96,0.22,0.19,10.07,611
17:54:04.364,6602,-1.14,1.12,0.07,16.04,612
17:54:04.374,6612,-1.22,1.82,-0.09,21.92,613
17:54:04.383,6622,-0.99,2.00,-0.29,22.46,614
17:54:04.393,6632,-1.00,1.06,-0.56,15.62,615
17:54:04.403,6642,-1.43,0.79,-0.26,16.55,616
17:54:04.415,6652,-1.59,0.31,0.06,16.23,617
17:54:04.428,6662,-1.43,0.01,0.43,14.96,618
17:54:04.434,6672,-1.18,0.17,0.59,13.30,619
17:54:04.451,6682,-0.82,0.76,0.50,12.27,620
17:54:04.453,6692,-0.75,0.91,0.39,12.43,621
17:54:04.463,6702,-0.79,0.65,0.29,10.68,622
17:54:04.474,6712,-0.89,0.31,0.19,9.63,623
17:54:04.483,6722,-0.94,0.10,0.15,9.52,624
17:54:04.501,6732,-1.05,-0.02,0.12,10.61,625
17:54:04.504,6742,-1.11,0.06,0.08,11.13,626
17:54:04.513,6752,-1.08,0.28,0.03,11.15,627
17:54:04.528,6762,-0.98,0.51,-0.04,11.09,628
17:54:04.533,6772,-0.93,0.57,-0.11,10.94,629
17:54:04.543,6782,-0.93,0.48,-0.12,10.49,630
17:54:04.554,6792,-0.99,0.38,-0.15,10.71,631
17:54:04.572,6802,-1.01,0.34,-0.20,10.86,632
17:54:04.573,6812,-1.02,0.31,-0.23,10.92,633
17:54:04.583,6822,-1.04,0.32,-0.27,11.25,634
17:54:04.592,6832,-1.02,0.36,-0.30,11.24,635
17:54:04.604,6842,-0.99,0.40,-0.33,11.18,636
17:54:04.615,6852,-0.98,0.40,-0.33,11.13,637
17:54:04.653,6862,-1.00,0.35,-0.28,10.91,638
17:54:04.654,6872,-1.02,0.30,-0.22,10.80,639
17:54:04.657,6882,-1.00,0.33,-0.13,10.57,640
17:54:04.658,6892,-0.95,0.48,-0.06,10.64,641
17:54:04.694,6902,-0.88,0.57,0.04,10.52,642
17:54:04.695,6912,-0.82,0.60,0.03,10.19,643
17:54:04.697,6922,-0.86,0.62,0.04,10.65,644
17:54:04.699,6932,-0.95,0.40,0.06,10.31,645
17:54:04.736,6942,-0.99,0.29,-0.02,10.37,646
17:54:04.736,6952,-0.99,0.39,-0.01,10.65,647
17:54:04.737,6962,-0.98,0.31,-0.05,10.28,648
17:54:04.739,6972,-0.92,0.39,-0.03,9.99,649
17:54:04.841,6982,-0.91,0.50,0.01,10.34,650
17:54:04.841,6992,-0.91,0.47,0.07,10.27,651
17:54:04.845,7002,-0.90,0.43,0.12,10.04,652
17:54:04.845,7012,-0.93,0.38,0.16,10.15,653
17:54:04.846,7022,-0.92,0.35,0.18,9.98,654
17:54:04.849,7032,-0.93,0.36,0.20,10.16,655
17:54:04.867,7042,-0.96,0.40,0.19,10.57,656
17:54:04.870,7052,-0.98,0.39,0.18,10.69,657
17:54:04.870,7062,-0.98,0.38,0.14,10.60,658
17:54:04.871,7072,-0.97,0.40,0.11,10.50,659
17:54:04.878,7082,-0.96,0.42,0.08,10.52,660
17:54:04.878,7092,-0.96,0.46,0.04,10.64,661
17:54:04.878,7102,-0.97,0.49,0.01,10.87,662
17:54:04.878,7112,-1.00,0.51,-0.02,11.26,663
17:54:04.883,7122,-1.03,0.50,-0.07,11.45,664
17:54:04.895,7132,-1.04,0.48,-0.12,11.51,665
17:54:04.909,7142,-1.04,0.47,-0.16,11.53,666
17:54:04.913,7152,-1.02,0.44,-0.20,11.27,667
17:54:04.928,7162,-0.98,0.42,-0.21,10.88,668
17:54:04.936,7172,-0.97,0.41,-0.21,10.74,669
17:54:04.943,7182,-0.99,0.38,-0.19,10.78,670
17:54:04.953,7192,-1.04,0.40,-0.19,11.32,671
17:54:04.963,7202,-1.09,0.43,-0.19,11.89,672
17:54:04.983,7212,-1.16,0.47,-0.20,12.68,673
17:54:04.984,7222,-1.21,0.53,-0.20,13.38,674
17:54:04.993,7232,-1.19,0.62,-0.24,13.59,675
17:54:05.013,7242,-1.18,0.69,-0.31,14.00,676
17:54:05.014,7252,-1.21,0.74,-0.29,14.45,677
17:54:05.023,7262,-1.34,0.91,-0.53,17.05,678
17:54:05.040,7272,-1.40,1.02,-0.85,19.27,679
17:54:05.043,7282,-1.46,1.05,-0.72,19.35,680
17:54:05.074,7292,-1.43,0.88,-0.53,17.60,681
17:54:05.075,7302,-1.33,0.59,-0.29,14.81,682
17:54:05.077,7312,-1.33,0.31,0.07,13.67,683
17:54:05.087,7322,-1.36,0.19,0.52,14.68,684
17:54:05.093,7332,-1.12,0.30,1.03,15.49,685
17:54:05.103,7342,-1.24,0.38,1.31,18.49,686
17:54:05.113,7352,-1.43,0.33,1.30,19.63,687
17:54:05.125,7362,-1.41,0.15,1.30,19.28,688
17:54:05.136,7372,-1.22,0.03,1.10,16.41,689
17:54:05.146,7382,-0.90,0.17,0.89,12.74,690
17:54:05.153,7392,-0.63,0.30,0.93,11.64,691
17:54:05.171,7402,-0.48,0.41,0.85,10.60,692
17:54:05.172,7412,-0.38,0.39,0.71,8.92,693
17:54:05.183,7422,-0.24,0.49,0.78,9.54,694
17:54:05.193,7432,-0.25,0.59,0.35,7.30,695
17:54:05.203,7442,-0.36,0.68,0.52,9.30,696
17:54:05.214,7452,-0.45,0.30,0.71,8.96,697
17:54:05.224,7462,-0.44,0.21,0.76,9.03,698
17:54:05.240,7472,-0.35,0.13,0.80,8.79,699
17:54:05.243,7482,-0.21,0.11,0.73,7.64,700
17:54:05.261,7492,-0.15,0.19,0.57,6.24,701
17:54:05.263,7502,-0.13,0.34,0.63,7.29,702
17:54:05.274,7512,-0.18,0.06,0.74,7.60,703
17:54:05.284,7522,-0.15,0.18,0.62,6.61,704
17:54:05.295,7532,-0.19,0.18,0.67,7.16,705
17:54:05.312,7542,-0.27,0.21,0.61,7.01,706
17:54:05.312,7552,0.04,0.31,1.22,12.57,707
17:54:05.324,7562,-0.29,0.15,0.73,7.95,708
17:54:05.334,7572,-0.30,0.18,0.72,7.99,709
17:54:05.342,7582,-0.32,0.24,0.75,8.44,710
17:54:05.358,7592,-0.33,0.30,0.70,8.29,711
17:54:05.362,7602,-0.33,0.34,0.65,8.08,712
17:54:05.375,7612,-0.35,0.41,0.64,8.34,713
17:54:05.383,7622,-0.38,0.43,0.59,8.27,714
17:54:05.435,7632,-0.43,0.36,0.58,8.09,715
17:54:05.439,7642,-0.52,0.38,0.67,9.33,716
17:54:05.439,7652,-0.64,0.33,0.74,10.27,717
17:54:05.441,7662,-0.64,0.37,0.61,9.61,718
17:54:05.441,7672,-0.86,0.27,0.74,11.67,719
17:54:05.476,7682,-0.84,0.30,0.61,10.85,720
17:54:05.479,7692,-0.77,0.38,0.51,10.02,721
17:54:05.480,7702,-0.73,0.51,0.44,9.94,722
17:54:05.480,7712,-0.67,0.72,0.37,10.56,723
17:54:05.518,7722,-0.90,0.65,0.32,11.59,724
17:54:05.518,7732,-0.71,0.65,0.20,9.81,725
17:54:05.519,7742,-0.96,0.49,0.33,11.27,726
17:54:05.521,7752,-1.16,0.32,0.24,12.27,727
17:54:05.558,7762,-1.03,0.14,-0.19,10.55,728
17:54:05.560,7772,-0.58,0.11,-1.10,12.49,729
17:54:05.561,7782,-0.13,-0.00,-1.49,14.92,730
17:54:05.562,7792,-0.38,0.32,-1.10,12.04,731
17:54:05.562,7802,-0.86,0.12,-0.43,9.70,732
17:54:05.600,7812,-1.18,-0.09,-0.02,11.88,733
17:54:05.600,7822,-1.13,-0.34,0.25,12.08,734
17:54:05.602,7832,-1.03,-0.31,0.31,11.17,735
17:54:05.603,7842,-1.24,0.50,0.23,13.57,736
17:54:05.614,7852,-1.05,1.63,0.16,19.47,737
17:54:05.625,7862,-1.06,2.00,-0.10,22.64,738
17:54:05.633,7872,-0.77,1.76,-0.17,19.29,739
17:54:05.643,7882,-1.04,1.35,-0.08,17.04,740
17:54:05.653,7892,-1.37,0.63,0.01,15.14,741
17:54:05.669,7902,-1.39,0.07,0.46,14.70,742
17:54:05.674,7912,-1.36,-0.19,0.73,15.55,743
17:54:05.683,7922,-0.94,0.24,0.44,10.64,744
17:54:05.693,7932,-0.89,0.63,0.41,11.68,745
17:54:05.711,7942,-0.89,0.66,0.22,11.34,746
17:54:05.713,7952,-0.86,0.49,-0.05,9.95,747
17:54:05.725,7962,-0.89,0.24,-0.17,9.42,748
17:54:05.734,7972,-0.97,0.03,-0.11,9.82,749
17:54:05.750,7982,-1.13,0.00,-0.03,11.35,750
17:54:05.753,7992,-1.16,0.21,-0.03,11.77,751
17:54:05.766,8002,-1.08,0.41,-0.12,11.58,752
17:54:05.773,8012,-0.99,0.45,-0.14,10.96,753
17:54:05.787,8022,-0.93,0.45,-0.12,10.45,754
17:54:05.793,8032,-0.97,0.42,-0.09,10.57,755
17:54:05.810,8042,-1.00,0.35,-0.07,10.59,756
17:54:05.813,8052,-1.01,0.31,-0.07,10.58,757
17:54:05.823,8062,-1.01,0.35,-0.10,10.76,758
17:54:05.839,8072,-1.01,0.39,-0.11,10.85,759
17:54:05.843,8082,-0.99,0.39,-0.13,10.70,760
17:54:05.859,8092,-0.97,0.36,-0.12,10.42,761
17:54:05.863,8102,-0.98,0.32,-0.11,10.39,762
17:54:05.880,8112,-0.99,0.32,-0.09,10.44,763
17:54:05.883,8122,-0.98,0.34,-0.04,10.35,764
17:54:05.899,8132,-0.94,0.38,0.00,10.17,765
17:54:05.903,8142,-0.93,0.41,0.04,10.15,766
17:54:05.944,8152,-0.92,0.42,0.06,10.11,767
17:54:05.945,8162,-0.93,0.43,0.04,10.28,768
17:54:05.947,8172,-0.96,0.41,0.02,10.43,769
17:54:05.948,8182,-0.95,0.35,-0.01,10.08,770
17:54:05.953,8192,-0.94,0.42,0.03,10.31,771
17:54:05.968,8202,-0.92,0.40,0.08,10.05,772
17:54:05.974,8212,-0.84,0.48,0.10,9.70,773
17:54:05.983,8222,-0.87,0.56,0.16,10.45,774
17:54:05.995,8232,-0.93,0.50,0.18,10.71,775
17:54:06.006,8242,-0.92,0.47,0.17,10.43,776
17:54:06.013,8252,-0.91,0.40,0.14,10.03,777
17:54:06.025,8262,-0.94,0.38,0.14,10.21,778
17:54:06.035,8272,-0.93,0.40,0.10,10.14,779
17:54:06.051,8282,-0.94,0.39,0.08,10.20,780
17:54:06.060,8292,-0.94,0.41,0.05,10.32,781
17:54:06.073,8302,-0.96,0.42,0.03,10.51,782
17:54:06.075,8312,-0.96,0.44,0.02,10.57,783
17:54:06.092,8322,-0.99,0.45,0.00,10.86,784
17:54:06.093,8332,-1.01,0.43,-0.02,10.96,785
17:54:06.106,8342,-1.01,0.41,-0.06,10.92,786
17:54:06.124,8352,-1.01,0.42,-0.10,11.04,787
17:54:06.125,8362,-1.04,0.46,-0.10,11.41,788
17:54:06.136,8372,-1.05,0.47,-0.13,11.61,789
17:54:06.144,8382,-1.04,0.48,-0.15,11.54,790
17:54:06.156,8392,-1.01,0.47,-0.15,11.18,791
17:54:06.163,8402,-0.97,0.45,-0.16,10.81,792
17:54:06.215,8412,-0.97,0.42,-0.14,10.70,793
17:54:06.216,8422,-1.00,0.40,-0.14,10.81,794
17:54:06.219,8432,-1.03,0.39,-0.14,11.12,795
17:54:06.220,8442,-1.06,0.40,-0.13,11.46,796
17:54:06.248,8452,-1.10,0.43,-0.13,11.90,797
17:54:06.248,8462,-1.16,0.46,-0.14,12.55,798
17:54:06.249,8472,-1.18,0.54,-0.17,13.06,799
17:54:06.250,8482,-1.16,0.63,-0.20,13.37,800
17:54:06.288,8492,-1.16,0.71,-0.25,13.81,801
17:54:06.289,8502,-1.16,0.79,-0.24,14.23,802
17:54:06.290,8512,-1.27,0.90,-0.52,16.42,803
17:54:06.293,8522,-1.32,0.95,-0.74,17.92,804
17:54:06.294,8532,-1.40,0.96,-0.72,18.47,805
17:54:06.331,8542,-1.43,0.78,-0.59,17.32,806
17:54:06.333,8552,-1.41,0.50,-0.33,15.35,807
17:54:06.335,8562,-1.44,0.20,-0.05,14.57,808
17:54:06.335,8572,-1.17,0.55,0.50,13.87,809
17:54:06.372,8582,-1.22,0.33,0.85,15.26,810
17:54:06.372,8592,-1.27,0.30,1.06,16.80,811
17:54:06.375,8602,-1.47,0.28,1.06,18.34,812
17:54:06.375,8612,-1.46,0.16,1.07,18.19,813
17:54:06.409,8622,-1.25,-0.01,1.39,18.66,814
17:54:06.410,8632,-0.95,0.02,1.07,14.33,815
17:54:06.410,8642,-0.69,0.23,0.78,10.63,816
17:54:06.415,8652,-0.48,0.38,0.97,11.50,817
17:54:06.423,8662,-0.33,0.41,0.98,11.08,818
17:54:06.439,8672,-0.33,0.50,0.52,7.98,819
17:54:06.444,8682,-0.30,0.74,0.44,9.14,820
17:54:06.454,8692,-0.47,0.54,0.74,10.35,821
17:54:06.465,8702,-0.64,0.33,0.59,9.29,822
17:54:06.475,8712,-0.53,0.16,0.67,8.64,823
17:54:06.486,8722,-0.39,0.15,0.73,8.39,824
17:54:06.495,8732,-0.29,0.19,0.66,7.42,825
17:54:06.506,8742,-0.23,0.23,0.58,6.65,826
17:54:06.515,8752,-0.22,0.24,0.62,7.01,827
17:54:06.526,8762,-0.17,0.24,0.64,7.09,828
17:54:06.536,8772,-0.21,0.21,0.67,7.34,829
17:54:06.544,8782,-0.23,0.21,0.67,7.39,830
17:54:06.553,8792,-0.25,0.19,0.65,7.27,831
17:54:06.563,8802,-0.28,0.16,0.68,7.54,832
17:54:06.579,8812,-0.31,0.16,0.72,7.97,833
17:54:06.586,8822,-0.31,0.20,0.72,8.09,834
17:54:06.597,8832,-0.30,-0.16,0.32,4.71,835
17:54:06.602,8842,-0.33,0.35,0.71,8.56,836
17:54:06.615,8852,-0.31,0.39,0.65,8.24,837
17:54:06.625,8862,-0.35,0.46,0.64,8.67,838
17:54:06.634,8872,-0.40,0.51,0.64,9.14,839
17:54:06.648,8882,-0.44,0.34,0.76,9.38,840
17:54:06.654,8892,-0.50,0.46,0.72,9.89,841
17:54:06.668,8902,-0.64,0.42,0.71,10.49,842
17:54:06.672,8912,-0.68,0.31,0.63,9.79,843
17:54:06.684,8922,-0.73,0.27,0.62,9.96,844
17:54:06.701,8932,-0.76,0.24,0.61,10.04,845
17:54:06.703,8942,-0.75,0.29,0.56,9.84,846
17:54:06.713,8952,-0.70,0.41,0.51,9.54,847
17:54:06.724,8962,-0.67,0.51,0.40,9.28,848
17:54:06.740,8972,-0.62,0.52,0.23,8.40,849
17:54:06.744,8982,-0.80,0.50,0.26,9.81,850
17:54:06.753,8992,-0.83,0.58,0.16,10.24,851
17:54:06.765,9002,-0.99,0.32,0.10,10.45,852
17:54:06.773,9012,-1.07,0.16,0.04,10.82,853
17:54:06.784,9022,-1.02,0.04,-0.16,10.31,854
17:54:06.795,9032,-0.86,0.08,-0.29,9.14,855
17:54:06.802,9042,-0.58,0.30,-0.52,8.32,856
17:54:06.812,9052,-0.15,0.60,-0.77,9.87,857
17:54:06.824,9062,-0.40,0.61,-0.53,8.99,858
17:54:06.875,9072,-0.62,0.59,-0.15,8.70,859
17:54:06.877,9082,-0.84,0.43,0.06,9.49,860
17:54:06.877,9092,-1.18,0.61,0.01,13.28,861
17:54:06.879,9102,-1.39,1.25,-0.04,18.73,862
17:54:06.880,9112,-1.37,1.58,-0.24,21.07,863
17:54:06.916,9122,-1.43,0.59,-0.16,15.56,864
17:54:06.918,9132,-1.39,0.46,-0.12,14.69,865
17:54:06.919,9142,-1.44,0.22,0.14,14.62,866
17:54:06.920,9152,-1.24,0.28,0.36,13.23,867
17:54:06.923,9162,-0.93,0.68,0.40,12.19,868
17:54:06.958,9172,-0.72,0.85,0.37,11.74,869
17:54:06.959,9182,-0.78,0.56,0.26,9.90,870
17:54:06.961,9192,-0.84,0.39,0.14,9.33,871
17:54:06.965,9202,-1.03,0.26,0.05,10.60,872
17:54:06.999,9212,-1.06,0.22,0.04,10.87,873
17:54:07.000,9222,-1.00,0.33,-0.03,10.55,874
17:54:07.002,9232,-0.92,0.35,-0.03,9.88,875
17:54:07.005,9242,-0.90,0.51,-0.04,10.34,876
17:54:07.042,9252,-0.92,0.55,-0.09,10.70,877
17:54:07.042,9262,-0.96,0.46,-0.10,10.69,878
17:54:07.043,9272,-1.02,0.34,-0.09,10.81,879
17:54:07.044,9282,-1.05,0.29,-0.06,10.87,880
17:54:07.055,9292,-1.06,0.30,-0.04,11.00,881
17:54:07.066,9302,-1.04,0.33,-0.06,10.89,882
17:54:07.075,9312,-1.00,0.38,-0.03,10.67,883
17:54:07.086,9322,-0.97,0.46,-0.06,10.70,884
17:54:07.095,9332,-0.96,0.48,-0.07,10.71,885
17:54:07.104,9342,-0.98,0.45,-0.06,10.75,886
17:54:07.115,9352,-0.97,0.40,-0.06,10.55,887
17:54:07.123,9362,-0.99,0.34,-0.03,10.53,888
17:54:07.132,9372,-1.01,0.39,-0.02,10.81,889
17:54:07.146,9382,-0.99,0.37,-0.01,10.53,890
17:54:07.155,9392,-0.97,0.37,-0.03,10.40,891
17:54:07.165,9402,-0.96,0.36,-0.05,10.29,892
17:54:07.174,9412,-0.99,0.36,0.01,10.56,893
17:54:07.183,9422,-0.97,0.41,-0.05,10.55,894
17:54:07.194,9432,-0.94,0.41,-0.05,10.31,895
17:54:07.223,9442,-0.92,0.42,-0.03,10.14,896
17:54:07.224,9452,-0.91,0.42,-0.00,10.05,897
17:54:07.225,9462,-0.92,0.39,0.03,10.02,898
17:54:07.238,9472,-0.94,0.40,0.09,10.23,899
17:54:07.247,9482,-0.94,0.38,0.11,10.20,900
17:54:07.256,9492,-0.94,0.37,0.12,10.21,901
17:54:07.264,9502,-0.94,0.38,0.12,10.21,902
17:54:07.272,9512,-0.94,0.39,0.13,10.29,903
17:54:07.287,9522,-0.94,0.40,0.11,10.26,904
17:54:07.292,9532,-0.94,0.42,0.05,10.31,905
17:54:07.304,9542,-0.97,0.43,0.03,10.61,906
17:54:07.313,9552,-1.00,0.42,-0.00,10.82,907
17:54:07.323,9562,-1.01,0.42,-0.01,10.91,908
17:54:07.332,9572,-1.00,0.44,-0.02,10.94,909
17:54:07.342,9582,-1.00,0.45,-0.04,10.98,910
17:54:07.355,9592,-1.01,0.43,-0.07,11.00,911
17:54:07.392,9602,-1.04,0.43,-0.06,11.29,912
17:54:07.392,9612,-1.04,0.45,-0.08,11.38,913
17:54:07.395,9622,-1.01,0.44,-0.09,11.05,914
17:54:07.395,9632,-1.00,0.43,-0.10,10.96,915
17:54:07.441,9642,-0.99,0.43,-0.10,10.84,916
17:54:07.442,9652,-0.97,0.43,-0.10,10.64,917
17:54:07.444,9662,-0.99,0.39,-0.10,10.73,918
17:54:07.445,9672,-1.03,0.38,-0.10,11.02,919
17:54:07.447,9682,-1.04,0.39,-0.10,11.20,920
17:54:07.457,9692,-1.06,0.42,-0.09,11.43,921
17:54:07.463,9702,-1.15,0.45,-0.15,12.45,922
17:54:07.479,9712,-1.20,0.51,-0.13,13.15,923
17:54:07.482,9722,-1.17,0.67,-0.21,13.67,924
17:54:07.495,9732,-1.12,0.82,-0.28,14.09,925
17:54:07.507,9742,-1.10,0.88,-0.29,14.42,926
17:54:07.513,9752,-1.17,0.96,-0.39,15.60,927
17:54:07.525,9762,-1.26,1.04,-0.77,18.00,928
17:54:07.533,9772,-1.29,1.05,-0.76,18.27,929
17:54:07.543,9782,-1.33,0.88,-0.64,17.15,930
17:54:07.556,9792,-1.35,0.59,-0.40,15.27,931
17:54:07.566,9802,-1.37,0.33,-0.12,14.16,932
17:54:07.575,9812,-1.39,0.21,0.26,14.32,933
17:54:07.627,9822,-1.37,0.30,0.51,14.95,934
17:54:07.628,9832,-1.30,0.39,1.00,16.88,935
17:54:07.630,9842,-1.45,0.35,1.07,18.32,936
17:54:07.630,9852,-1.46,0.23,1.14,18.68,937
17:54:07.631,9862,-1.32,0.06,1.28,18.42,938
17:54:07.632,9872,-1.05,-0.03,1.16,15.66,939
17:54:07.668,9882,-0.81,0.21,0.86,11.98,940
17:54:07.668,9892,-0.61,0.37,0.95,11.85,941
17:54:07.672,9902,-0.31,0.60,0.98,11.88,942
17:54:07.674,9912,-0.35,0.24,0.87,9.74,943
17:54:07.709,9922,-0.37,0.49,0.64,8.89,944
17:54:07.711,9932,-0.44,0.47,0.68,9.36,945
17:54:07.711,9942,-0.58,0.35,0.70,9.72,946
17:54:07.714,9952,-0.57,0.24,0.71,9.45,947
17:54:07.750,9962,-0.49,0.15,0.77,9.26,948
17:54:07.751,9972,-0.34,0.13,0.76,8.47,949
17:54:07.752,9982,-0.23,0.15,0.65,7.09,950
17:54:07.754,9992,-0.17,0.18,0.65,6.93,951
17:54:07.793,10002,-0.12,0.27,0.61,6.77,952
17:54:07.793,10012,-0.11,0.23,0.58,6.37,953
17:54:07.794,10022,-0.17,0.19,0.65,7.03,954
17:54:07.796,10032,-0.20,0.20,0.66,7.21,955
17:54:07.807,10042,-0.28,0.00,0.64,7.00,956
17:54:07.817,10052,-0.28,0.15,0.63,7.02,957
17:54:07.828,10062,-0.30,0.16,0.68,7.55,958
17:54:07.833,10072,-0.37,-0.11,0.09,3.98,959
17:54:07.847,10082,-0.32,0.28,0.66,7.88,960
17:54:07.853,10092,-0.33,0.32,0.67,8.16,961
17:54:07.872,10102,-0.35,0.39,0.64,8.27,962
17:54:07.875,10112,-0.33,0.42,0.61,8.12,963
17:54:07.887,10122,-0.35,0.52,0.56,8.45,964
17:54:07.893,10132,-0.37,0.40,0.67,8.60,965
17:54:07.908,10142,-0.44,0.44,0.70,9.34,966
17:54:07.914,10152,-0.55,0.43,0.69,9.85,967
17:54:07.923,10162,-0.63,0.39,0.75,10.52,968
17:54:07.932,10172,-0.71,0.38,0.69,10.53,969
17:54:07.944,10182,-0.78,0.35,0.60,10.42,970
17:54:07.955,10192,-0.81,0.35,0.48,10.05,971
17:54:07.964,10202,-0.81,0.39,0.41,9.91,972
17:54:07.976,10212,-0.88,0.39,0.25,9.91,973
17:54:07.987,10222,-0.93,0.43,0.14,10.32,974
17:54:07.993,10232,-1.01,0.48,0.15,11.26,975
17:54:08.002,10242,-1.08,0.41,0.21,11.71,976
17:54:08.018,10252,-1.04,0.18,-0.10,10.60,977
17:54:08.023,10262,-0.75,0.20,-0.54,9.48,978
17:54:08.033,10272,-0.45,0.23,-1.29,13.88,979
17:54:08.043,10282,-0.13,0.08,-1.31,13.22,980
17:54:08.056,10292,-0.52,0.33,-0.94,11.23,981
17:54:08.067,10302,-0.83,0.15,-0.35,9.13,982
17:54:08.076,10312,-1.01,0.15,0.02,10.25,983
17:54:08.083,10322,-1.09,-0.04,0.18,11.10,984
17:54:08.093,10332,-1.04,-0.37,0.38,11.68,985
17:54:08.106,10342,-0.91,-0.20,0.35,9.95,986
17:54:08.115,10352,-1.05,0.70,0.23,12.81,987
17:54:08.126,10362,-1.34,1.37,0.25,19.34,988
17:54:08.134,10372,-1.40,1.67,0.07,21.86,989
17:54:08.144,10382,-1.10,1.80,-0.36,21.35,990
17:54:08.158,10392,-0.81,1.15,-0.44,14.72,991
17:54:08.165,10402,-1.05,0.97,-0.03,14.29,992
17:54:08.173,10412,-1.08,0.95,0.22,14.55,993
17:54:08.189,10422,-1.15,0.50,0.36,13.04,994
17:54:08.193,10432,-1.19,0.21,0.47,12.99,995
17:54:08.212,10442,-1.04,0.35,0.48,11.96,996
17:54:08.213,10452,-0.94,0.56,0.31,11.37,997
17:54:08.225,10462,-1.04,0.40,0.16,11.25,998
17:54:08.238,10472,-1.06,0.22,0.08,10.84,999
17:54:08.244,10482,-1.02,0.17,-0.04,10.31,1000
17:54:08.252,10492,-0.98,0.20,-0.07,10.00,1001
17:54:08.267,10502,-0.96,0.31,-0.10,10.17,1002
17:54:08.273,10512,-0.99,0.41,-0.12,10.78,1003
17:54:08.294,10522,-1.02,0.42,-0.13,11.08,1004
17:54:08.294,10532,-1.06,0.36,-0.12,11.22,1005
17:54:08.303,10542,-1.07,0.30,-0.10,11.11,1006
17:54:08.312,10552,-1.05,0.27,-0.10,10.92,1007
17:54:08.326,10562,-1.06,0.28,-0.14,11.03,1008
17:54:08.333,10572,-1.07,0.28,-0.21,11.30,1009
17:54:08.369,10582,-1.09,0.23,-0.22,11.36,1010
17:54:08.370,10592,-1.07,0.28,-0.24,11.29,1011
17:54:08.372,10602,-1.02,0.39,-0.28,11.25,1012
17:54:08.373,10612,-0.97,0.44,-0.28,11.03,1013
17:54:08.411,10622,-0.98,0.40,-0.24,10.80,1014
17:54:08.411,10632,-0.98,0.36,-0.18,10.57,1015
17:54:08.412,10642,-0.95,0.36,-0.12,10.27,1016
17:54:08.415,10652,-0.94,0.42,-0.07,10.34,1017
17:54:08.452,10662,-0.92,0.46,-0.05,10.28,1018
17:54:08.452,10672,-0.91,0.45,-0.05,10.13,1019
17:54:08.454,10682,-0.92,0.42,-0.05,10.13,1020
17:54:08.455,10692,-0.92,0.40,-0.05,10.09,1021
17:54:08.493,10702,-0.92,0.43,-0.03,10.13,1022
17:54:08.494,10712,-0.91,0.45,-0.01,10.10,1023
17:54:08.495,10722,-0.90,0.44,0.02,10.02,1024
17:54:08.498,10732,-0.87,0.45,0.06,9.75,1025
17:54:08.534,10742,-0.86,0.45,0.10,9.79,1026
17:54:08.535,10752,-0.90,0.43,0.17,10.16,1027
17:54:08.536,10762,-0.89,0.48,0.16,10.27,1028
17:54:08.538,10772,-0.92,0.40,0.21,10.22,1029
17:54:08.576,10782,-0.93,0.40,0.21,10.30,1030
17:54:08.576,10792,-0.94,0.38,0.19,10.33,1031
17:54:08.578,10802,-0.95,0.37,0.17,10.33,1032
17:54:08.579,10812,-0.96,0.39,0.14,10.49,1033
17:54:08.602,10822,-0.97,0.43,0.11,10.64,1034
17:54:08.602,10832,-1.00,0.41,0.08,10.86,1035
17:54:08.603,10842,-1.02,0.41,0.02,11.01,1036
17:54:08.623,10852,-1.06,0.42,-0.04,11.35,1037
17:54:08.623,10862,-1.06,0.43,-0.11,11.45,1038
17:54:08.633,10872,-1.03,0.44,-0.16,11.31,1039
17:54:08.650,10882,-1.03,0.44,-0.20,11.40,1040
17:54:08.653,10892,-1.05,0.46,-0.22,11.69,1041
17:54:08.679,10902,-1.06,0.44,-0.26,11.76,1042
17:54:08.680,10912,-1.07,0.41,-0.27,11.76,1043
17:54:08.684,10922,-1.10,0.45,-0.27,12.16,1044
17:54:08.732,10932,-1.10,0.50,-0.25,12.35,1045
17:54:08.732,10942,-1.12,0.55,-0.26,12.76,1046
17:54:08.734,10952,-1.16,0.56,-0.24,13.14,1047
17:54:08.748,10962,-1.16,0.56,-0.23,13.10,1048
17:54:08.750,10972,-1.16,0.59,-0.30,13.35,1049
17:54:08.751,10982,-1.16,0.65,-0.34,13.69,1050
17:54:08.754,10992,-1.16,0.71,-0.31,13.92,1051
17:54:08.763,11002,-1.25,0.88,-0.43,15.90,1052
17:54:08.773,11012,-1.33,0.92,-0.75,17.85,1053
17:54:08.783,11022,-1.36,0.98,-0.60,17.78,1054
17:54:08.792,11032,-1.34,0.92,-0.41,16.78,1055
17:54:08.803,11042,-1.29,0.68,-0.26,14.81,1056
17:54:08.820,11052,-1.31,0.39,0.03,13.66,1057
17:54:08.822,11062,-1.24,0.34,0.36,13.34,1058
17:54:08.834,11072,-1.21,0.32,0.88,15.30,1059
17:54:08.843,11082,-1.16,0.36,1.23,17.30,1060
17:54:08.853,11092,-1.42,0.37,1.27,19.39,1061
17:54:08.863,11102,-1.40,0.21,1.27,19.06,1062
17:54:08.876,11112,-1.19,0.06,0.99,15.48,1063
17:54:08.884,11122,-0.89,0.22,0.84,12.48,1064
17:54:08.895,11132,-0.68,0.30,1.00,12.47,1065
17:54:08.902,11142,-0.39,0.60,0.82,10.91,1066
17:54:08.918,11152,-0.33,0.66,0.44,8.58,1067
17:54:08.922,11162,-0.33,0.63,0.55,9.00,1068
17:54:08.939,11172,-0.38,0.60,0.70,9.99,1069
17:54:08.942,11182,-0.46,0.47,0.68,9.47,1070
17:54:08.955,11192,-0.43,0.35,0.72,9.09,1071
17:54:08.963,11202,-0.36,0.27,0.72,8.46,1072
17:54:08.977,11212,-0.20,0.23,0.67,7.32,1073
17:54:08.983,11222,-0.13,0.24,0.65,6.99,1074
17:54:08.993,11232,-0.16,0.25,0.65,7.09,1075
17:54:09.003,11242,-0.19,0.25,0.64,7.10,1076
17:54:09.013,11252,-0.20,0.23,0.63,7.02,1077
17:54:09.024,11262,-0.27,0.24,0.65,7.41,1078
17:54:09.039,11272,-0.38,0.42,0.60,8.29,1079
17:54:09.042,11282,-0.42,0.06,0.82,9.27,1080
17:54:09.080,11292,-0.27,0.18,0.70,7.74,1081
17:54:09.080,11302,-0.29,0.22,0.74,8.23,1082
17:54:09.082,11312,-0.28,0.27,0.70,7.99,1083
17:54:09.083,11322,-0.28,0.32,0.67,7.96,1084
17:54:09.113,11332,-0.33,0.35,0.58,7.57,1085
17:54:09.119,11342,-0.37,0.34,0.50,7.08,1086
17:54:09.119,11352,-0.46,0.33,0.60,8.26,1087
17:54:09.146,11362,-0.50,0.33,0.59,8.38,1088
17:54:09.148,11372,-0.58,0.32,0.68,9.49,1089
17:54:09.149,11382,-0.67,0.31,0.68,10.09,1090
17:54:09.153,11392,-0.67,0.33,0.70,10.24,1091
17:54:09.189,11402,-0.79,0.24,0.59,10.11,1092
17:54:09.189,11412,-0.70,0.30,0.51,9.12,1093
17:54:09.193,11422,-0.72,0.39,0.49,9.54,1094
17:54:09.193,11432,-0.74,0.48,0.43,9.83,1095
17:54:09.230,11442,-0.75,0.58,0.35,10.16,1096
17:54:09.230,11452,-0.82,0.65,0.25,10.82,1097
17:54:09.231,11462,-0.89,0.64,0.08,10.95,1098
17:54:09.234,11472,-0.92,0.40,0.08,10.12,1099
17:54:09.271,11482,-0.93,0.40,-0.10,10.14,1100
17:54:09.271,11492,-0.75,0.40,-0.43,9.54,1101
17:54:09.272,11502,-0.42,0.52,-1.09,12.76,1102
17:54:09.274,11512,-0.15,0.50,-1.23,13.34,1103
17:54:09.286,11522,-0.57,0.36,-0.89,11.17,1104
17:54:09.293,11532,-0.93,0.12,-0.40,10.22,1105
17:54:09.303,11542,-1.08,-0.03,-0.05,10.80,1106
17:54:09.318,11552,-1.02,-0.11,0.24,10.55,1107
17:54:09.322,11562,-1.06,0.00,0.30,11.03,1108
17:54:09.333,11572,-1.15,0.76,0.17,13.88,1109
17:54:09.343,11582,-1.15,1.73,0.14,20.78,1110
17:54:09.355,11592,-1.42,2.00,-0.16,24.54,1111
17:54:09.363,11602,-1.18,1.01,0.01,15.52,1112
17:54:09.380,11612,-1.19,0.62,0.02,13.48,1113
17:54:09.383,11622,-1.23,0.45,0.19,13.22,1114
17:54:09.394,11632,-1.17,0.30,0.35,12.61,1115
17:54:09.404,11642,-1.05,0.37,0.38,11.77,1116
17:54:09.421,11652,-0.84,0.45,0.26,9.90,1117
17:54:09.424,11662,-0.85,0.43,0.22,9.74,1118
17:54:09.434,11672,-0.89,0.42,0.12,9.87,1119
17:54:09.443,11682,-0.96,0.38,-0.05,10.34,1120
17:54:09.460,11692,-0.96,0.20,-0.08,9.87,1121
17:54:09.463,11702,-0.95,0.16,0.05,9.62,1122
17:54:09.472,11712,-1.03,0.15,0.08,10.42,1123
17:54:09.489,11722,-1.01,0.39,0.06,10.79,1124
17:54:09.498,11732,-0.97,0.53,0.05,11.07,1125
17:54:09.503,11742,-0.94,0.49,0.05,10.61,1126
17:54:09.517,11752,-0.96,0.43,0.13,10.55,1127
17:54:09.527,11762,-0.97,0.42,0.13,10.65,1128
17:54:09.535,11772,-0.99,0.39,0.15,10.77,1129
17:54:09.546,11782,-0.99,0.37,0.14,10.63,1130
17:54:09.554,11792,-1.01,0.34,0.10,10.69,1131
17:54:09.562,11802,-1.01,0.33,0.07,10.67,1132
17:54:09.572,11812,-1.02,0.30,0.01,10.65,1133
17:54:09.583,11822,-1.03,0.30,-0.04,10.72,1134
17:54:09.593,11832,-1.03,0.32,-0.08,10.77,1135
17:54:09.603,11842,-0.99,0.38,-0.08,10.65,1136
17:54:09.620,11852,-0.96,0.44,-0.09,10.64,1137
17:54:09.622,11862,-0.92,0.49,-0.09,10.44,1138
17:54:09.638,11872,-0.92,0.48,-0.06,10.39,1139
17:54:09.645,11882,-0.93,0.47,-0.03,10.43,1140
17:54:09.660,11892,-0.96,0.46,-0.04,10.62,1141
17:54:09.663,11902,-0.97,0.45,-0.04,10.72,1142
17:54:09.674,11912,-0.99,0.39,-0.04,10.67,1143
17:54:09.689,11922,-0.97,0.36,-0.03,10.36,1144
17:54:09.693,11932,-0.95,0.38,-0.03,10.25,1145
17:54:09.703,11942,-0.93,0.40,0.00,10.10,1146
17:54:09.720,11952,-0.92,0.41,0.01,10.07,1147
17:54:09.723,11962,-0.92,0.42,0.04,10.17,1148
17:54:09.733,11972,-0.94,0.42,0.07,10.35,1149
17:54:09.774,11982,-0.93,0.42,0.09,10.28,1150
17:54:09.778,11992,-0.92,0.42,0.10,10.19,1151
17:54:09.778,12002,-0.94,0.40,0.10,10.27,1152
17:54:09.778,12012,-0.95,0.42,0.11,10.46,1153
17:54:09.815,12022,-0.95,0.43,0.11,10.45,1154
17:54:09.816,12032,-0.94,0.44,0.10,10.42,1155
17:54:09.819,12042,-0.94,0.44,0.09,10.42,1156
17:54:09.820,12052,-0.95,0.45,0.08,10.53,1157
17:54:09.855,12062,-0.95,0.45,0.05,10.53,1158
17:54:09.856,12072,-0.96,0.46,0.03,10.65,1159
17:54:09.858,12082,-0.98,0.46,-0.01,10.80,1160
17:54:09.860,12092,-1.02,0.45,-0.03,11.12,1161
17:54:09.898,12102,-1.05,0.47,-0.05,11.47,1162
17:54:09.898,12112,-1.03,0.44,-0.10,11.20,1163
17:54:09.898,12122,-1.01,0.43,-0.13,11.02,1164
17:54:09.900,12132,-1.00,0.43,-0.15,10.99,1165
17:54:09.937,12142,-1.00,0.44,-0.14,10.99,1166
17:54:09.937,12152,-1.01,0.44,-0.13,11.10,1167
17:54:09.938,12162,-1.06,0.42,-0.15,11.46,1168
17:54:09.938,12172,-1.06,0.43,-0.15,11.59,1169
17:54:09.977,12182,-1.05,0.49,-0.18,11.75,1170
17:54:09.977,12192,-1.10,0.49,-0.17,12.18,1171
17:54:09.979,12202,-1.16,0.55,-0.16,12.96,1172
17:54:09.981,12212,-1.15,0.66,-0.19,13.40,1173
17:54:10.005,12222,-1.13,0.77,-0.26,13.94,1174
17:54:10.042,12232,-1.14,0.82,-0.23,14.25,1175
17:54:10.055,12242,-1.24,0.89,-0.50,16.08,1176
17:54:10.056,12252,-1.33,0.91,-0.77,17.86,1177
17:54:10.058,12262,-1.42,0.91,-0.78,18.54,1178
17:54:10.089,12272,-1.45,0.74,-0.63,17.43,1179
17:54:10.090,12282,-1.44,0.56,-0.44,16.06,1180
17:54:10.091,12292,-1.41,0.39,-0.18,14.75,1181
17:54:10.095,12302,-1.39,0.25,0.28,14.38,1182
17:54:10.095,12312,-1.34,0.28,0.70,15.41,1183
17:54:10.096,12322,-1.24,0.32,1.21,17.68,1184
17:54:10.111,12332,-1.35,0.34,1.16,18.14,1185
17:54:10.112,12342,-1.33,0.26,1.21,18.22,1186
17:54:10.112,12352,-1.23,0.13,1.34,18.26,1187
17:54:10.133,12362,-1.03,0.07,1.21,15.85,1188
17:54:10.135,12372,-0.71,0.25,0.93,12.02,1189
17:54:10.166,12382,-0.51,0.40,1.05,12.33,1190
17:54:10.167,12392,-0.32,0.48,0.95,11.09,1191
17:54:10.167,12402,-0.19,0.45,0.72,8.73,1192
17:54:10.172,12412,-0.11,0.35,0.75,8.32,1193
17:54:10.185,12422,-0.39,0.60,0.57,9.10,1194
17:54:10.195,12432,-0.46,0.35,0.67,8.87,1195
17:54:10.204,12442,-0.49,0.21,0.75,9.26,1196
17:54:10.214,12452,-0.39,0.17,0.82,9.25,1197
17:54:10.225,12462,-0.24,0.16,0.71,7.68,1198
17:54:10.234,12472,-0.13,0.07,0.69,7.02,1199
17:54:10.244,12482,-0.07,0.05,0.72,7.23,1200
17:54:10.259,12492,-0.06,0.24,0.60,6.50,1201
17:54:10.263,12502,-0.14,0.22,0.62,6.69,1202
17:54:10.274,12512,-0.18,0.20,0.66,7.13,1203
17:54:10.287,12522,-0.20,0.20,0.66,7.19,1204
17:54:10.293,12532,-0.21,0.27,0.49,6.02,1205
17:54:10.304,12542,-0.24,0.26,0.68,7.64,1206
17:54:10.316,12552,-0.25,0.26,0.63,7.23,1207
17:54:10.323,12562,-0.28,0.26,0.66,7.62,1208
17:54:10.332,12572,-0.31,0.30,0.64,7.72,1209
17:54:10.344,12582,-0.32,0.33,0.63,7.83,1210
17:54:10.354,12592,-0.34,0.40,0.64,8.24,1211
17:54:10.362,12602,-0.38,0.44,0.62,8.53,1212
17:54:10.373,12612,-0.43,0.45,0.64,8.98,1213
17:54:10.387,12622,-0.45,0.47,0.64,9.05,1214
17:54:10.397,12632,-0.49,0.44,0.67,9.40,1215
17:54:10.402,12642,-0.59,0.44,0.72,10.31,1216
17:54:10.413,12652,-0.67,0.35,0.68,10.19,1217
17:54:10.428,12662,-0.78,0.36,0.70,11.06,1218
17:54:10.433,12672,-0.82,0.32,0.58,10.59,1219
17:54:10.443,12682,-0.77,0.41,0.47,9.95,1220
17:54:10.460,12692,-0.74,0.51,0.42,9.86,1221
17:54:10.462,12702,-0.69,0.57,0.28,9.38,1222
17:54:10.475,12712,-0.70,0.51,0.14,8.76,1223
17:54:10.487,12722,-0.71,0.66,0.05,9.67,1224
17:54:10.494,12732,-0.91,0.51,0.20,10.63,1225
17:54:10.505,12742,-1.02,0.18,-0.02,10.33,1226
17:54:10.514,12752,-0.97,-0.01,-0.30,10.14,1227
17:54:10.568,12762,-0.70,-0.00,-0.61,9.26,1228
17:54:10.568,12772,-0.48,0.08,-0.95,10.69,1229
17:54:10.570,12782,-0.43,0.19,-0.88,9.96,1230
17:54:10.571,12792,-0.66,0.30,-0.51,8.87,1231
17:54:10.571,12802,-0.83,0.29,-0.15,8.94,1232
17:54:10.573,12812,-0.82,0.18,0.16,8.54,1233
17:54:10.609,12822,-0.79,0.12,0.29,8.50,1234
17:54:10.610,12832,-1.19,0.77,0.15,14.29,1235
17:54:10.610,12842,-1.27,1.53,0.06,19.84,1236
17:54:10.613,12852,-1.54,1.73,-0.14,23.21,1237
17:54:10.649,12862,-1.43,0.84,-0.41,17.14,1238
17:54:10.650,12872,-1.37,0.73,-0.08,15.56,1239
17:54:10.651,12882,-1.36,0.57,0.15,14.80,1240
17:54:10.653,12892,-1.29,0.42,0.36,14.07,1241
17:54:10.683,12902,-1.14,0.28,0.57,13.04,1242
17:54:10.683,12912,-0.88,0.48,0.51,11.26,1243
17:54:10.686,12922,-0.83,0.59,0.39,10.84,1244
17:54:10.716,12932,-0.89,0.57,0.17,10.75,1245
17:54:10.718,12942,-0.96,0.49,0.09,10.79,1246
17:54:10.720,12952,-0.98,0.35,-0.04,10.45,1247
17:54:10.723,12962,-0.95,0.33,-0.15,10.22,1248
17:54:10.756,12972,-0.95,0.44,-0.17,10.62,1249
17:54:10.756,12982,-0.95,0.41,-0.24,10.60,1250
17:54:10.758,12992,-1.00,0.38,-0.24,10.97,1251
17:54:10.765,13002,-1.04,0.34,-0.23,11.19,1252
17:54:10.775,13012,-1.06,0.32,-0.23,11.31,1253
17:54:10.784,13022,-1.04,0.30,-0.20,11.05,1254
17:54:10.800,13032,-1.00,0.33,-0.17,10.69,1255
17:54:10.804,13042,-0.98,0.37,-0.17,10.63,1256
17:54:10.813,13052,-0.99,0.39,-0.16,10.79,1257
17:54:10.831,13062,-1.01,0.35,-0.19,10.86,1258
17:54:10.834,13072,-1.01,0.35,-0.17,10.85,1259
17:54:10.843,13082,-0.98,0.40,-0.14,10.67,1260
17:54:10.854,13092,-0.97,0.42,-0.14,10.67,1261
17:54:10.863,13102,-0.96,0.37,-0.08,10.30,1262
17:54:10.881,13112,-0.95,0.38,-0.04,10.23,1263
17:54:10.883,13122,-0.95,0.38,0.01,10.22,1264
17:54:10.892,13132,-0.95,0.39,0.05,10.31,1265
17:54:10.903,13142,-0.96,0.36,0.10,10.32,1266
17:54:10.914,13152,-0.97,0.37,0.10,10.41,1267
17:54:10.923,13162,-0.96,0.37,0.10,10.35,1268
17:54:10.936,13172,-0.95,0.38,0.13,10.32,1269
17:54:10.946,13182,-0.91,0.41,0.14,10.02,1270
17:54:10.957,13192,-0.91,0.42,0.15,10.11,1271
17:54:10.963,13202,-0.89,0.43,0.18,10.02,1272
17:54:10.973,13212,-0.88,0.45,0.16,10.03,1273
17:54:10.983,13222,-0.92,0.38,0.22,10.19,1274
17:54:10.993,13232,-0.95,0.38,0.25,10.59,1275
17:54:11.004,13242,-0.95,0.38,0.21,10.44,1276
17:54:11.013,13252,-0.96,0.37,0.16,10.42,1277
17:54:11.023,13262,-0.98,0.36,0.10,10.48,1278
17:54:11.033,13272,-0.98,0.39,0.05,10.56,1279
17:54:11.068,13282,-1.01,0.39,0.03,10.87,1280
17:54:11.071,13292,-1.00,0.41,-0.03,10.84,1281
17:54:11.071,13302,-1.00,0.44,-0.06,10.89,1282
17:54:11.072,13312,-1.03,0.47,-0.09,11.35,1283
17:54:11.083,13322,-1.05,0.48,-0.14,11.68,1284
17:54:11.093,13332,-1.06,0.51,-0.17,11.87,1285
17:54:11.108,13342,-1.05,0.51,-0.22,11.91,1286
17:54:11.115,13352,-1.03,0.48,-0.24,11.64,1287
17:54:11.129,13362,-1.01,0.46,-0.24,11.34,1288
17:54:11.134,13372,-1.00,0.42,-0.25,11.11,1289
17:54:11.148,13382,-1.01,0.43,-0.23,11.15,1290
17:54:11.153,13392,-1.02,0.45,-0.22,11.38,1291
17:54:11.165,13402,-1.02,0.47,-0.20,11.40,1292
17:54:11.173,13412,-1.03,0.51,-0.20,11.70,1293
17:54:11.184,13422,-1.08,0.55,-0.16,12.23,1294
17:54:11.195,13432,-1.14,0.60,-0.17,12.99,1295
17:54:11.204,13442,-1.17,0.65,-0.23,13.58,1296
17:54:11.256,13452,-1.20,0.68,-0.31,14.17,1297
17:54:11.256,13462,-1.24,0.73,-0.31,14.74,1298
17:54:11.256,13472,-1.36,0.83,-0.61,17.09,1299
17:54:11.258,13482,-1.36,0.95,-0.74,18.14,1300
17:54:11.259,13492,-1.36,1.00,-0.57,17.76,1301
17:54:11.295,13502,-1.27,0.81,-0.40,15.55,1302
17:54:11.297,13512,-1.24,0.56,-0.15,13.68,1303
17:54:11.298,13522,-1.15,0.46,0.11,12.46,1304
17:54:11.299,13532,-1.10,0.57,0.70,14.27,1305
17:54:11.309,13542,-1.26,0.48,1.08,17.32,1306
17:54:11.314,13552,-1.54,0.48,1.23,20.27,1307
17:54:11.350,13562,-1.64,0.41,1.29,21.26,1308
17:54:11.350,13572,-1.47,0.19,1.33,19.92,1309
17:54:11.351,13582,-1.04,0.04,1.15,15.54,1310
17:54:11.352,13592,-0.69,0.16,0.97,12.03,1311
17:54:11.392,13602,-0.50,0.46,0.87,11.05,1312
17:54:11.392,13612,-0.41,0.49,1.07,12.45,1313
17:54:11.392,13622,-0.28,0.58,0.71,9.62,1314
17:54:11.394,13632,-0.26,0.51,0.71,9.07,1315
17:54:11.403,13642,-0.25,0.53,0.63,8.56,1316
17:54:11.518,13652,-0.36,0.44,0.66,8.73,1317
17:54:11.518,13662,-0.41,0.38,0.67,8.71,1318
17:54:11.519,13672,-0.42,0.38,0.67,8.82,1319
17:54:11.524,13682,-0.35,0.35,0.70,8.54,1320
17:54:11.524,13692,-0.23,0.26,0.63,7.22,1321
17:54:11.559,13702,-0.16,0.28,0.62,7.01,1322
17:54:11.563,13712,-0.10,0.29,0.61,6.86,1323
17:54:11.563,13722,-0.13,0.24,0.59,6.47,1324
17:54:11.563,13732,-0.11,0.22,0.66,7.05,1325
17:54:11.563,13742,-0.16,0.17,0.65,6.86,1326
17:54:11.563,13752,-0.25,0.18,0.60,6.73,1327
17:54:11.563,13762,-0.33,0.02,0.66,7.34,1328
17:54:11.603,13772,-0.32,0.15,0.64,7.30,1329
17:54:11.603,13782,-0.36,0.15,0.70,7.97,1330
17:54:11.605,13792,-0.37,0.20,0.70,8.14,1331
17:54:11.607,13802,-0.38,0.23,0.67,8.09,1332
17:54:11.607,13812,-0.38,0.27,0.69,8.29,1333
17:54:11.641,13822,-0.41,0.32,0.69,8.60,1334
17:54:11.641,13832,-0.45,0.32,0.80,9.68,1335
17:54:11.641,13842,-0.52,0.32,0.83,10.28,1336
17:54:11.641,13852,-0.55,0.35,0.86,10.80,1337
17:54:11.642,13862,-0.64,0.33,0.78,10.58,1338
17:54:11.644,13872,-0.60,0.38,0.33,7.86,1339
17:54:11.644,13882,-0.67,0.26,0.63,9.61,1340
17:54:11.653,13892,-0.66,0.30,0.63,9.58,1341
17:54:11.663,13902,-0.71,0.43,0.51,9.71,1342
17:54:11.679,13912,-0.71,0.58,0.41,10.09,1343
17:54:11.683,13922,-0.70,0.78,0.37,11.12,1344
17:54:11.692,13932,-0.83,0.78,0.35,11.86,1345
17:54:11.702,13942,-0.84,0.67,0.10,10.81,1346
17:54:11.713,13952,-0.84,0.34,0.11,9.12,1347
17:54:11.723,13962,-0.77,0.21,-0.25,8.36,1348
17:54:11.735,13972,-0.61,0.29,-0.74,10.02,1349
17:54:11.744,13982,-0.34,0.24,-1.23,12.99,1350
17:54:11.759,13992,-0.45,0.31,-0.96,11.06,1351
17:54:11.762,14002,-0.73,0.25,-0.50,9.21,1352
17:54:11.781,14012,-0.89,0.13,-0.07,9.05,1353
17:54:11.782,14022,-0.83,0.04,0.23,8.65,1354
17:54:11.800,14032,-0.90,0.17,0.30,9.63,1355
17:54:11.802,14042,-1.15,0.95,0.16,15.01,1356
17:54:11.816,14052,-1.18,1.65,0.01,20.34,1357
17:54:11.826,14062,-1.46,1.60,-0.17,21.75,1358
17:54:11.835,14072,-1.48,0.52,-0.35,16.11,1359
17:54:11.847,14082,-1.51,0.50,-0.10,15.90,1360
17:54:11.852,14092,-1.33,0.38,0.13,13.87,1361
17:54:11.863,14102,-1.23,0.28,0.38,13.18,1362
17:54:11.874,14112,-0.99,0.47,0.46,11.92,1363
17:54:11.890,14122,-0.75,0.67,0.33,10.60,1364
17:54:11.893,14132,-0.76,0.66,0.28,10.45,1365
17:54:11.905,14142,-0.79,0.54,0.17,9.74,1366
17:54:11.917,14152,-0.90,0.44,0.04,10.03,1367
17:54:11.925,14162,-1.02,0.25,-0.00,10.52,1368
17:54:11.933,14172,-1.07,0.17,-0.02,10.80,1369
17:54:11.951,14182,-1.00,0.27,0.03,10.37,1370
17:54:11.952,14192,-0.96,0.38,0.01,10.31,1371
17:54:11.963,14202,-0.96,0.51,0.03,10.83,1372
17:54:11.978,14212,-0.96,0.49,-0.05,10.78,1373
17:54:11.983,14222,-0.98,0.43,-0.05,10.71,1374
17:54:11.998,14232,-0.99,0.37,-0.03,10.55,1375
17:54:12.003,14242,-1.01,0.33,-0.02,10.66,1376
17:54:12.015,14252,-1.02,0.33,-0.00,10.68,1377
17:54:12.024,14262,-0.98,0.34,-0.03,10.41,1378
17:54:12.035,14272,-0.95,0.41,-0.08,10.34,1379
17:54:12.044,14282,-0.92,0.49,-0.07,10.48,1380
17:54:12.054,14292,-0.92,0.54,-0.12,10.75,1381
17:54:12.064,14302,-0.94,0.51,-0.14,10.81,1382
17:54:12.076,14312,-0.94,0.48,-0.13,10.61,1383
17:54:12.084,14322,-0.99,0.40,-0.12,10.76,1384
17:54:12.098,14332,-0.99,0.37,-0.09,10.61,1385
17:54:12.103,14342,-0.98,0.38,-0.06,10.48,1386
17:54:12.113,14352,-0.93,0.44,-0.07,10.31,1387
17:54:12.123,14362,-0.92,0.46,-0.04,10.30,1388
17:54:12.135,14372,-0.93,0.46,-0.05,10.43,1389
17:54:12.144,14382,-0.95,0.45,-0.04,10.50,1390
17:54:12.160,14392,-0.94,0.42,-0.05,10.31,1391
17:54:12.162,14402,-0.94,0.40,-0.03,10.23,1392
17:54:12.175,14412,-0.94,0.37,0.02,10.11,1393
17:54:12.183,14422,-0.93,0.37,0.07,10.07,1394
17:54:12.194,14432,-0.93,0.39,0.10,10.12,1395
17:54:12.206,14442,-0.93,0.41,0.13,10.23,1396
17:54:12.217,14452,-0.91,0.43,0.16,10.14,1397
17:54:12.228,14462,-0.91,0.42,0.17,10.11,1398
17:54:12.266,14472,-0.92,0.40,0.17,10.22,1399
17:54:12.266,14482,-0.95,0.38,0.16,10.38,1400
17:54:12.266,14492,-0.95,0.38,0.16,10.37,1401
17:54:12.267,14502,-0.95,0.39,0.14,10.36,1402
17:54:12.306,14512,-0.95,0.43,0.14,10.52,1403
17:54:12.308,14522,-0.94,0.46,0.12,10.51,1404
17:54:12.308,14532,-0.95,0.46,0.09,10.56,1405
17:54:12.310,14542,-0.95,0.45,0.05,10.55,1406
17:54:12.344,14552,-1.02,0.45,0.03,11.11,1407
17:54:12.345,14562,-1.04,0.46,-0.01,11.40,1408
17:54:12.346,14572,-1.04,0.47,-0.05,11.41,1409
17:54:12.348,14582,-1.02,0.49,-0.09,11.35,1410
17:54:12.386,14592,-1.01,0.54,-0.13,11.54,1411
17:54:12.386,14602,-1.03,0.50,-0.15,11.53,1412
17:54:12.387,14612,-1.05,0.47,-0.17,11.64,1413
17:54:12.389,14622,-1.09,0.43,-0.17,11.86,1414
17:54:12.427,14632,-1.10,0.43,-0.19,11.94,1415
17:54:12.427,14642,-1.08,0.45,-0.17,11.85,1416
17:54:12.428,14652,-1.14,0.44,-0.18,12.31,1417
17:54:12.430,14662,-1.19,0.46,-0.17,12.87,1418
17:54:12.433,14672,-1.20,0.57,-0.24,13.48,1419
17:54:12.468,14682,-1.20,0.65,-0.32,13.98,1420
17:54:12.470,14692,-1.21,0.75,-0.38,14.70,1421
17:54:12.470,14702,-1.23,0.87,-0.37,15.50,1422
17:54:12.474,14712,-1.32,1.00,-0.62,17.66,1423
17:54:12.488,14722,-1.36,1.01,-0.81,18.75,1424
17:54:12.493,14732,-1.43,0.93,-0.71,18.52,1425
17:54:12.504,14742,-1.41,0.70,-0.48,16.49,1426
17:54:12.513,14752,-1.37,0.40,-0.19,14.37,1427
17:54:12.531,14762,-1.36,0.23,0.18,13.92,1428
17:54:12.533,14772,-1.26,0.29,0.62,14.32,1429
17:54:12.547,14782,-1.28,0.28,1.04,16.72,1430
17:54:12.553,14792,-1.41,0.45,1.13,18.64,1431
17:54:12.563,14802,-1.46,0.42,1.06,18.50,1432
17:54:12.580,14812,-1.21,0.27,1.22,17.36,1433
17:54:12.583,14822,-0.95,0.18,1.20,15.46,1434
17:54:12.597,14832,-0.69,0.27,0.89,11.54,1435
17:54:12.608,14842,-0.44,0.53,0.86,11.03,1436
17:54:12.613,14852,-0.33,0.55,0.93,11.32,1437
17:54:12.626,14862,-0.32,0.91,0.40,10.42,1438
17:54:12.638,14872,-0.25,0.55,0.62,8.65,1439
17:54:12.643,14882,-0.45,0.43,0.64,8.91,1440
17:54:12.652,14892,-0.58,0.34,0.56,8.77,1441
17:54:12.663,14902,-0.52,0.24,0.59,8.21,1442
17:54:12.673,14912,-0.46,0.25,0.70,8.75,1443
17:54:12.688,14922,-0.38,0.22,0.74,8.57,1444
17:54:12.693,14932,-0.26,0.12,0.76,8.17,1445
17:54:12.707,14942,-0.18,0.18,0.64,6.87,1446
17:54:12.715,14952,-0.20,0.25,0.69,7.59,1447
17:54:12.726,14962,-0.19,0.20,0.66,7.11,1448
17:54:12.735,14972,-0.21,0.28,0.64,7.33,1449
17:54:12.745,14982,-0.25,0.17,0.69,7.51,1450
17:54:12.752,14992,-0.31,0.19,0.67,7.63,1451
17:54:12.763,15002,-0.34,0.13,0.70,7.87,1452
17:54:12.777,15012,-0.36,0.10,0.61,7.15,1453
17:54:12.784,15022,-0.38,0.16,0.65,7.72,1454
17:54:12.795,15032,-0.38,0.18,0.66,7.88,1455
17:54:12.804,15042,-0.40,0.29,0.66,8.20,1456
17:54:12.813,15052,-0.40,0.41,0.65,8.63,1457
17:54:12.829,15062,-0.41,0.43,0.67,8.98,1458
17:54:12.833,15072,-0.37,0.48,0.67,9.05,1459
17:54:12.844,15082,-0.43,0.46,0.74,9.72,1460
17:54:12.857,15092,-0.48,0.43,0.65,9.16,1461
17:54:12.867,15102,-0.57,0.38,0.77,10.27,1462
17:54:12.912,15112,-0.64,0.33,0.71,10.12,1463
17:54:12.913,15122,-0.73,0.30,0.65,10.21,1464
17:54:12.913,15132,-0.74,0.31,0.57,9.81,1465
17:54:12.953,15142,-0.71,0.39,0.49,9.53,1466
17:54:12.954,15152,-0.69,0.46,0.30,8.84,1467
17:54:12.956,15162,-0.67,0.58,0.16,9.01,1468
17:54:12.957,15172,-0.80,0.65,0.21,10.54,1469
17:54:12.958,15182,-0.77,0.71,0.21,10.69,1470
17:54:12.994,15192,-0.94,0.53,0.23,10.99,1471
17:54:12.994,15202,-0.97,0.27,-0.09,10.14,1472
17:54:12.996,15212,-0.65,0.19,-0.43,8.00,1473
17:54:12.997,15222,-0.54,0.10,-1.02,11.60,1474
17:54:12.997,15232,-0.25,0.22,-1.20,12.49,1475
17:54:13.032,15242,-0.55,0.22,-0.73,9.36,1476
17:54:13.032,15252,-0.93,0.18,-0.33,10.06,1477
17:54:13.032,15262,-1.09,-0.01,-0.02,10.93,1478
17:54:13.034,15272,-0.94,-0.17,0.23,9.77,1479
17:54:13.072,15282,-0.93,-0.03,0.27,9.66,1480
17:54:13.072,15292,-1.29,0.71,0.11,14.78,1481
17:54:13.074,15302,-1.36,1.52,0.06,20.36,1482
17:54:13.075,15312,-1.33,2.00,-0.28,24.15,1483
17:54:13.114,15322,-1.20,1.24,-0.59,18.24,1484
17:54:13.114,15332,-1.30,0.87,-0.14,15.74,1485
17:54:13.115,15342,-1.34,0.69,0.06,15.09,1486
17:54:13.116,15352,-1.22,0.20,0.44,13.18,1487
17:54:13.152,15362,-1.18,0.16,0.61,13.38,1488
17:54:13.153,15372,-0.94,0.47,0.53,11.79,1489
17:54:13.154,15382,-0.82,0.64,0.41,11.16,1490
17:54:13.154,15392,-0.80,0.62,0.28,10.54,1491
17:54:13.164,15402,-0.90,0.44,0.14,10.13,1492
17:54:13.182,15412,-1.00,0.20,0.19,10.34,1493
17:54:13.184,15422,-1.04,0.09,0.02,10.42,1494
17:54:13.199,15432,-0.98,0.18,-0.03,9.98,1495
17:54:13.203,15442,-0.97,0.33,-0.05,10.25,1496
17:54:13.214,15452,-0.97,0.45,-0.07,10.69,1497
17:54:13.225,15462,-1.02,0.46,-0.15,11.31,1498
17:54:13.233,15472,-1.04,0.39,-0.17,11.22,1499
17:54:13.247,15482,-1.02,0.33,-0.16,10.81,1500
17:54:13.256,15492,-1.00,0.33,-0.15,10.63,1501
17:54:13.264,15502,-1.01,0.33,-0.14,10.68,1502
17:54:13.275,15512,-1.02,0.31,-0.12,10.76,1503
17:54:13.286,15522,-1.04,0.31,-0.14,10.95,1504
17:54:13.295,15532,-1.05,0.35,-0.17,11.17,1505
17:54:13.303,15542,-1.03,0.36,-0.19,11.06,1506
17:54:13.319,15552,-1.01,0.36,-0.20,10.89,1507
17:54:13.323,15562,-0.99,0.36,-0.17,10.65,1508
17:54:13.338,15572,-0.99,0.35,-0.09,10.55,1509
17:54:13.343,15582,-0.98,0.37,0.01,10.45,1510
17:54:13.353,15592,-0.94,0.39,0.01,10.18,1511
17:54:13.370,15602,-0.93,0.45,0.02,10.33,1512
17:54:13.373,15612,-0.92,0.48,0.03,10.40,1513
17:54:13.382,15622,-0.94,0.45,0.02,10.45,1514
17:54:13.393,15632,-0.97,0.46,0.05,10.75,1515
17:54:13.405,15642,-0.94,0.33,0.01,9.95,1516
17:54:13.413,15652,-0.90,0.27,0.02,9.37,1517
17:54:13.428,15662,-0.93,0.39,0.08,10.14,1518
17:54:13.433,15672,-0.95,0.40,0.11,10.38,1519
17:54:13.444,15682,-0.95,0.42,0.15,10.50,1520
17:54:13.453,15692,-0.92,0.42,0.14,10.24,1521
17:54:13.467,15702,-0.90,0.39,0.13,9.92,1522
17:54:13.472,15712,-0.90,0.38,0.12,9.83,1523
17:54:13.488,15722,-0.95,0.36,0.14,10.28,1524
17:54:13.494,15732,-0.99,0.36,0.17,10.68,1525
17:54:13.503,15742,-0.98,0.40,0.17,10.68,1526
17:54:13.515,15752,-0.94,0.42,0.16,10.40,1527
17:54:13.527,15762,-0.96,0.43,0.16,10.65,1528
17:54:13.537,15772,-0.97,0.42,0.13,10.64,1529
17:54:13.543,15782,-0.99,0.39,0.09,10.73,1530
17:54:13.553,15792,-1.02,0.41,0.05,10.98,1531
17:54:13.562,15802,-1.03,0.45,-0.01,11.26,1532
17:54:13.574,15812,-1.06,0.44,-0.07,11.51,1533
17:54:13.591,15822,-1.06,0.42,-0.13,11.47,1534
17:54:13.593,15832,-1.03,0.43,-0.17,11.26,1535
17:54:13.622,15842,-1.01,0.44,-0.21,11.20,1536
17:54:13.623,15852,-0.99,0.43,-0.22,11.04,1537
17:54:13.625,15862,-0.99,0.42,-0.23,11.04,1538
17:54:13.634,15872,-1.02,0.42,-0.22,11.20,1539
17:54:13.645,15882,-0.99,0.45,-0.20,11.10,1540
17:54:13.653,15892,-1.01,0.48,-0.16,11.25,1541
17:54:13.665,15902,-1.07,0.48,-0.13,11.82,1542
17:54:13.674,15912,-1.16,0.53,-0.09,12.81,1543
17:54:13.691,15922,-1.19,0.65,-0.11,13.59,1544
17:54:13.693,15932,-1.20,0.73,-0.17,14.14,1545
17:54:13.738,15942,-1.22,0.83,-0.26,15.01,1546
17:54:13.738,15952,-1.30,0.93,-0.62,17.15,1547
17:54:13.738,15962,-1.36,0.94,-0.84,18.62,1548
17:54:13.738,15972,-1.43,0.96,-0.77,18.88,1549
17:54:13.774,15982,-1.43,0.75,-0.62,17.32,1550
17:54:13.775,15992,-1.41,0.50,-0.40,15.44,1551
17:54:13.781,16002,-1.43,0.33,-0.03,14.66,1552
17:54:13.781,16012,-1.36,0.37,0.44,14.81,1553
17:54:13.812,16022,-1.32,0.44,0.91,16.59,1554
17:54:13.812,16032,-1.53,0.48,1.20,20.04,1555
17:54:13.814,16042,-1.70,0.42,1.16,20.95,1556
17:54:13.817,16052,-1.50,0.14,1.14,18.93,1557
17:54:13.854,16062,-1.19,-0.10,1.32,17.81,1558
17:54:13.854,16072,-0.89,-0.11,1.12,14.38,1559
17:54:13.855,16082,-0.67,0.15,0.91,11.43,1560
17:54:13.856,16092,-0.57,0.46,0.98,12.22,1561
17:54:13.893,16102,-0.39,0.64,1.05,12.96,1562
17:54:13.894,16112,-0.27,0.48,0.74,9.23,1563
17:54:13.895,16122,-0.18,0.62,0.55,8.46,1564
17:54:13.896,16132,-0.25,0.59,0.73,9.66,1565
17:54:13.932,16142,-0.46,0.39,0.70,9.19,1566
17:54:13.934,16152,-0.53,0.25,0.70,9.17,1567
17:54:13.935,16162,-0.45,0.22,0.76,9.13,1568
17:54:13.936,16172,-0.28,0.16,0.72,7.89,1569
17:54:13.943,16182,-0.15,0.09,0.71,7.30,1570
17:54:13.958,16192,-0.07,0.15,0.64,6.59,1571
17:54:13.963,16202,0.01,0.22,0.53,5.68,1572
17:54:13.975,16212,-0.09,0.12,0.69,7.04,1573
17:54:13.986,16222,-0.08,0.15,0.65,6.70,1574
17:54:13.994,16232,-0.10,0.25,0.56,6.22,1575
17:54:14.007,16242,-0.20,0.05,0.63,6.60,1576
17:54:14.016,16252,-0.25,0.07,0.69,7.37,1577
17:54:14.028,16262,-0.28,0.12,0.74,8.02,1578
17:54:14.033,16272,-0.34,0.19,0.84,9.27,1579
17:54:14.044,16282,-0.28,0.25,0.66,7.58,1580
17:54:14.054,16292,-0.30,0.32,0.71,8.37,1581
17:54:14.064,16302,-0.31,0.37,0.66,8.22,1582
17:54:14.073,16312,-0.37,0.41,0.69,8.87,1583
17:54:14.089,16322,-0.45,0.40,0.71,9.32,1584
17:54:14.093,16332,-0.53,0.35,0.69,9.42,1585
17:54:14.106,16342,-0.64,0.31,0.71,10.08,1586
17:54:14.116,16352,-0.70,0.30,0.67,10.11,1587
17:54:14.125,16362,-0.79,0.25,0.92,12.42,1588
17:54:14.137,16372,-0.77,0.26,0.62,10.17,1589
17:54:14.142,16382,-0.74,0.42,0.57,10.28,1590
17:54:14.154,16392,-0.72,0.47,0.40,9.45,1591
17:54:14.163,16402,-0.63,0.61,0.16,8.88,1592
17:54:14.173,16412,-0.64,0.65,0.28,9.54,1593
17:54:14.183,16422,-0.83,0.67,0.23,10.95,1594
17:54:14.196,16432,-1.01,0.29,0.16,10.64,1595
17:54:14.204,16442,-1.07,-0.02,-0.21,10.88,1596
17:54:14.218,16452,-0.83,-0.01,-0.64,10.49,1597
17:54:14.274,16462,-0.51,0.17,-1.09,12.09,1598
17:54:14.274,16472,-0.51,0.20,-1.14,12.67,1599
17:54:14.275,16482,-0.69,0.24,-0.65,9.81,1600
17:54:14.276,16492,-0.86,0.25,-0.23,9.26,1601
17:54:14.280,16502,-0.87,0.18,0.08,8.88,1602
17:54:14.280,16512,-0.84,0.07,0.21,8.74,1603
17:54:14.323,16522,-1.17,0.46,0.13,12.64,1604
17:54:14.336,16532,-1.25,1.39,0.06,18.72,1605
17:54:14.337,16542,-1.37,1.89,0.03,23.35,1606
17:54:14.339,16552,-1.18,1.31,-0.23,17.74,1607
17:54:14.340,16562,-1.29,0.79,0.10,15.20,1608
17:54:14.340,16572,-1.25,0.70,0.16,14.45,1609
17:54:14.343,16582,-1.21,0.27,0.44,13.18,1610
17:54:14.354,16592,-1.10,0.29,0.54,12.59,1611
17:54:14.366,16602,-0.89,0.46,0.43,10.92,1612
17:54:14.373,16612,-0.79,0.58,0.33,10.38,1613
17:54:14.387,16622,-0.83,0.51,0.25,10.06,1614
17:54:14.425,16632,-0.92,0.49,0.13,10.53,1615
17:54:14.426,16642,-1.01,0.33,0.03,10.64,1616
17:54:14.427,16652,-1.01,0.18,-0.05,10.27,1617
17:54:14.430,16662,-0.92,0.27,-0.03,9.59,1618
17:54:14.467,16672,-0.94,0.35,0.01,9.99,1619
17:54:14.467,16682,-1.02,0.35,0.03,10.76,1620
17:54:14.469,16692,-1.05,0.35,-0.01,11.10,1621
17:54:14.472,16702,-1.04,0.38,0.00,11.04,1622
17:54:14.473,16712,-1.00,0.38,-0.00,10.74,1623
17:54:14.509,16722,-0.98,0.39,-0.00,10.59,1624
17:54:14.509,16732,-0.99,0.40,-0.02,10.71,1625
17:54:14.510,16742,-0.97,0.39,-0.07,10.52,1626
17:54:14.513,16752,-0.98,0.35,-0.12,10.54,1627
17:54:14.549,16762,-1.01,0.35,-0.15,10.77,1628
17:54:14.550,16772,-1.01,0.38,-0.14,10.91,1629
17:54:14.551,16782,-1.00,0.38,-0.12,10.80,1630
17:54:14.552,16792,-1.01,0.38,-0.12,10.82,1631
17:54:14.589,16802,-0.97,0.38,-0.10,10.43,1632
17:54:14.589,16812,-0.95,0.39,-0.10,10.35,1633
17:54:14.590,16822,-0.94,0.39,-0.08,10.25,1634
17:54:14.593,16832,-0.97,0.40,-0.04,10.47,1635
17:54:14.627,16842,-0.98,0.42,-0.04,10.64,1636
17:54:14.627,16852,-0.96,0.44,-0.05,10.53,1637
17:54:14.629,16862,-0.93,0.45,-0.05,10.33,1638
17:54:14.632,16872,-0.92,0.44,-0.04,10.22,1639
17:54:14.650,16882,-0.94,0.40,-0.03,10.21,1640
17:54:14.654,16892,-0.96,0.35,0.01,10.24,1641
17:54:14.664,16902,-0.95,0.34,0.04,10.12,1642
17:54:14.674,16912,-0.93,0.38,0.08,10.10,1643
17:54:14.692,16922,-0.91,0.41,0.10,10.01,1644
17:54:14.692,16932,-0.90,0.41,0.12,9.98,1645
17:54:14.710,16942,-0.93,0.38,0.15,10.15,1646
17:54:14.713,16952,-0.95,0.36,0.16,10.31,1647
17:54:14.723,16962,-0.97,0.36,0.15,10.48,1648
17:54:14.733,16972,-0.96,0.42,0.14,10.59,1649
17:54:14.747,16982,-0.94,0.46,0.11,10.48,1650
17:54:14.755,16992,-0.93,0.48,0.09,10.51,1651
17:54:14.766,17002,-0.97,0.45,0.06,10.75,1652
17:54:14.776,17012,-1.01,0.43,0.05,10.95,1653
17:54:14.782,17022,-1.04,0.43,0.01,11.26,1654
17:54:14.799,17032,-1.05,0.46,-0.02,11.46,1655
17:54:14.803,17042,-1.04,0.48,-0.10,11.50,1656
17:54:14.818,17052,-1.02,0.47,-0.13,11.30,1657
17:54:14.825,17062,-1.01,0.45,-0.17,11.22,1658
17:54:14.834,17072,-1.02,0.41,-0.22,11.21,1659
17:54:14.852,17082,-1.03,0.40,-0.24,11.28,1660
17:54:14.852,17092,-1.03,0.41,-0.26,11.35,1661
17:54:14.868,17102,-1.03,0.44,-0.25,11.46,1662
17:54:14.873,17112,-1.08,0.45,-0.23,11.88,1663
17:54:14.905,17122,-1.13,0.48,-0.19,12.40,1664
17:54:14.905,17132,-1.18,0.55,-0.15,13.13,1665
17:54:14.906,17142,-1.23,0.63,-0.19,13.93,1666
17:54:14.916,17152,-1.23,0.71,-0.21,14.34,1667
17:54:14.925,17162,-1.23,0.81,-0.22,14.91,1668
17:54:14.933,17172,-1.29,0.97,-0.59,17.17,1669
17:54:14.943,17182,-1.30,1.09,-0.76,18.62,1670
17:54:14.960,17192,-1.35,1.09,-0.68,18.60,1671
17:54:14.962,17202,-1.40,0.78,-0.48,16.76,1672
17:54:14.979,17212,-1.43,0.53,-0.24,15.41,1673
17:54:14.983,17222,-1.40,0.28,0.12,14.29,1674
17:54:14.993,17232,-1.34,0.30,0.53,14.70,1675
17:54:15.007,17242,-1.50,0.19,1.36,20.35,1676
17:54:15.016,17252,-1.60,0.40,1.07,19.63,1677
17:54:15.024,17262,-1.76,0.28,0.98,20.35,1678
17:54:15.037,17272,-1.40,0.09,1.11,17.88,1679
17:54:15.044,17282,-1.07,-0.13,1.47,18.24,1680
17:54:15.054,17292,-0.75,0.00,1.23,14.45,1681
17:54:15.072,17302,-0.53,0.26,0.91,10.88,1682
17:54:15.073,17312,-0.50,0.50,1.27,14.50,1683
17:54:15.083,17322,-0.23,0.78,0.79,11.31,1684
17:54:15.099,17332,-0.06,0.86,0.55,10.26,1685
17:54:15.103,17342,-0.10,0.69,0.74,10.14,1686
17:54:15.147,17352,-0.41,0.45,0.68,9.17,1687
17:54:15.148,17362,-0.51,0.32,0.67,8.98,1688
17:54:15.149,17372,-0.45,0.31,0.69,8.81,1689
17:54:15.150,17382,-0.37,0.26,0.70,8.35,1690
17:54:15.153,17392,-0.22,0.19,0.69,7.46,1691
17:54:15.189,17402,-0.07,0.19,0.65,6.85,1692
17:54:15.189,17412,-0.06,0.21,0.66,6.92,1693
17:54:15.191,17422,-0.12,0.25,0.60,6.64,1694
17:54:15.192,17432,-0.12,0.17,0.60,6.38,1695
17:54:15.230,17442,-0.17,0.15,0.59,6.33,1696
17:54:15.230,17452,-0.21,0.20,0.44,5.26,1697
17:54:15.231,17462,-0.32,0.13,0.65,7.33,1698
17:54:15.232,17472,-0.32,0.12,0.67,7.53,1699
17:54:15.271,17482,-0.36,0.15,0.63,7.38,1700
17:54:15.271,17492,-0.35,0.19,0.66,7.68,1701
17:54:15.273,17502,-0.36,0.30,0.68,8.30,1702
17:54:15.275,17512,-0.37,0.35,0.64,8.17,1703
17:54:15.313,17522,-0.42,0.43,0.65,8.84,1704
17:54:15.313,17532,-0.44,0.46,0.68,9.33,1705
17:54:15.314,17542,-0.47,0.42,0.65,9.05,1706
17:54:15.316,17552,-0.53,0.41,0.70,9.75,1707
17:54:15.345,17562,-0.64,0.36,0.68,10.03,1708
17:54:15.346,17572,-0.79,0.26,0.76,11.26,1709
17:54:15.348,17582,-0.80,0.26,0.59,10.28,1710
17:54:15.355,17592,-0.79,0.33,0.52,9.98,1711
17:54:15.368,17602,-0.73,0.44,0.48,9.82,1712
17:54:15.373,17612,-0.75,0.48,0.30,9.37,1713
17:54:15.383,17622,-0.78,0.54,0.19,9.67,1714
17:54:15.393,17632,-0.89,0.61,0.19,10.93,1715
17:54:15.403,17642,-0.87,0.46,0.14,9.97,1716
17:54:15.416,17652,-0.89,0.32,-0.11,9.47,1717
17:54:15.427,17662,-0.83,0.21,-0.42,9.52,1718
17:54:15.436,17672,-0.66,0.23,-0.79,10.51,1719
17:54:15.447,17682,-0.50,0.29,-1.07,12.22,1720
17:54:15.456,17692,-0.53,0.27,-0.96,11.29,1721
17:54:15.466,17702,-0.72,0.21,-0.55,9.28,1722
17:54:15.474,17712,-0.93,0.21,-0.19,9.76,1723
17:54:15.483,17722,-0.97,0.11,0.04,9.82,1724
17:54:15.493,17732,-0.90,-0.04,0.24,9.31,1725
17:54:15.504,17742,-0.82,0.08,0.26,8.65,1726
17:54:15.515,17752,-1.02,0.81,0.14,13.05,1727
17:54:15.523,17762,-1.28,1.50,0.13,19.75,1728
17:54:15.533,17772,-1.40,1.97,-0.24,24.28,1729
17:54:15.543,17782,-1.27,1.36,-0.33,18.95,1730
17:54:15.611,17792,-1.21,0.87,-0.16,15.00,1731
17:54:15.611,17802,-1.32,0.79,0.01,15.38,1732
17:54:15.612,17812,-1.44,0.24,0.33,14.95,1733
17:54:15.613,17822,-1.31,0.03,0.67,14.70,1734
17:54:15.615,17832,-1.00,0.39,0.58,12.20,1735
17:54:15.646,17842,-0.85,0.70,0.46,11.92,1736
17:54:15.646,17852,-0.84,0.66,0.35,11.25,1737
17:54:15.649,17862,-0.86,0.52,0.20,10.24,1738
17:54:15.665,17872,-0.97,0.29,0.04,10.15,1739
17:54:15.678,17882,-1.05,0.08,-0.09,10.56,1740
17:54:15.680,17892,-0.99,0.18,-0.04,10.03,1741
17:54:15.680,17902,-0.92,0.34,-0.09,9.88,1742
17:54:15.714,17912,-0.92,0.49,-0.13,10.51,1743
17:54:15.714,17922,-0.98,0.49,-0.17,11.13,1744
17:54:15.715,17932,-1.02,0.44,-0.23,11.33,1745
17:54:15.734,17942,-1.03,0.38,-0.26,11.25,1746
17:54:15.734,17952,-1.00,0.38,-0.24,10.97,1747
17:54:15.735,17962,-0.97,0.43,-0.25,10.91,1748
17:54:15.739,17972,-0.99,0.39,-0.24,10.94,1749
17:54:15.747,17982,-1.03,0.32,-0.25,11.01,1750
17:54:15.754,17992,-1.04,0.30,-0.22,11.03,1751
17:54:15.769,18002,-1.04,0.35,-0.20,11.14,1752
17:54:15.774,18012,-1.01,0.39,-0.17,10.98,1753
17:54:15.788,18022,-1.00,0.37,-0.15,10.77,1754
17:54:15.793,18032,-0.98,0.35,-0.11,10.50,1755
17:54:15.809,18042,-0.97,0.35,-0.05,10.34,1756
17:54:15.812,18052,-0.96,0.36,-0.00,10.28,1757
17:54:15.855,18062,-0.95,0.39,0.03,10.25,1758
17:54:15.856,18072,-0.94,0.40,0.03,10.24,1759
17:54:15.857,18082,-0.94,0.43,0.02,10.32,1760
17:54:15.861,18092,-0.94,0.49,0.02,10.59,1761
17:54:15.898,18102,-0.94,0.44,-0.00,10.41,1762
17:54:15.898,18112,-0.89,0.30,0.00,9.39,1763
17:54:15.899,18122,-0.95,0.34,0.06,10.08,1764
17:54:15.900,18132,-0.96,0.39,0.12,10.39,1765
17:54:15.903,18142,-0.97,0.39,0.16,10.53,1766
17:54:15.938,18152,-0.93,0.41,0.17,10.29,1767
17:54:15.939,18162,-0.90,0.39,0.18,9.98,1768
17:54:15.941,18172,-0.89,0.38,0.19,9.90,1769
17:54:15.942,18182,-0.93,0.39,0.19,10.23,1770
17:54:15.979,18192,-0.97,0.41,0.20,10.68,1771
17:54:15.982,18202,-0.96,0.40,0.18,10.56,1772
17:54:15.986,18212,-0.94,0.40,0.17,10.39,1773
17:54:15.986,18222,-0.94,0.41,0.14,10.35,1774
17:54:16.021,18232,-0.95,0.42,0.11,10.42,1775
17:54:16.022,18242,-0.96,0.42,0.08,10.47,1776
17:54:16.023,18252,-0.95,0.43,0.03,10.46,1777
17:54:16.024,18262,-0.98,0.43,0.01,10.65,1778
17:54:16.048,18272,-1.01,0.42,-0.03,10.91,1779
17:54:16.050,18282,-1.05,0.40,-0.09,11.25,1780
17:54:16.053,18292,-1.05,0.41,-0.13,11.32,1781
17:54:16.070,18302,-1.02,0.42,-0.17,11.18,1782
17:54:16.079,18312,-0.99,0.45,-0.18,11.02,1783
17:54:16.085,18322,-0.99,0.44,-0.18,10.96,1784
17:54:16.101,18332,-1.00,0.44,-0.16,11.05,1785
17:54:16.103,18342,-1.05,0.43,-0.12,11.36,1786
17:54:16.117,18352,-1.07,0.42,-0.07,11.49,1787
17:54:16.123,18362,-1.08,0.44,-0.02,11.71,1788
17:54:16.134,18372,-1.14,0.46,0.02,12.30,1789
17:54:16.151,18382,-1.17,0.51,0.02,12.81,1790
17:54:16.154,18392,-1.14,0.60,-0.03,12.86,1791
17:54:16.185,18402,-1.13,0.63,-0.11,13.00,1792
17:54:16.185,18412,-1.12,0.67,-0.20,13.17,1793
17:54:16.185,18422,-1.11,0.77,-0.25,13.75,1794
17:54:16.196,18432,-1.21,0.88,-0.43,15.61,1795
17:54:16.205,18442,-1.23,0.99,-0.72,17.41,1796
17:54:16.216,18452,-1.31,1.05,-0.81,18.65,1797
17:54:16.226,18462,-1.35,0.93,-0.75,18.06,1798
17:54:16.236,18472,-1.35,0.71,-0.58,16.33,1799
17:54:16.245,18482,-1.34,0.43,-0.32,14.39,1800
17:54:16.253,18492,-1.39,0.37,0.03,14.34,1801
17:54:16.264,18502,-1.31,0.42,0.53,14.72,1802
17:54:16.275,18512,-1.39,0.45,0.90,17.21,1803
17:54:16.284,18522,-1.55,0.47,0.98,18.93,1804
17:54:16.293,18532,-1.61,0.40,0.95,19.11,1805
17:54:16.309,18542,-1.45,0.17,0.89,17.14,1806
17:54:16.313,18552,-1.19,-0.05,1.09,16.11,1807
17:54:16.323,18562,-0.98,-0.17,1.21,15.66,1808
17:54:16.333,18572,-0.76,-0.02,1.10,13.38,1809
17:54:16.343,18582,-0.47,0.23,1.31,14.12,1810
17:54:16.353,18592,-0.47,0.33,1.08,12.19,1811
17:54:16.363,18602,-0.39,0.49,0.65,9.05,1812
17:54:16.375,18612,-0.43,0.60,0.72,10.36,1813
17:54:16.385,18622,-0.29,0.68,0.71,10.27,1814
17:54:16.399,18632,-0.36,0.53,0.75,9.88,1815
17:54:16.403,18642,-0.43,0.34,0.75,9.25,1816
17:54:16.420,18652,-0.38,0.28,0.79,9.22,1817
17:54:16.423,18662,-0.29,0.23,0.76,8.43,1818
17:54:16.438,18672,-0.12,0.14,0.70,7.24,1819
17:54:16.442,18682,-0.01,0.21,0.68,7.10,1820
17:54:16.456,18692,-0.04,0.16,0.66,6.83,1821
17:54:16.467,18702,-0.10,0.11,0.69,7.09,1822
17:54:16.472,18712,-0.10,0.14,0.67,6.89,1823
17:54:16.486,18722,-0.15,0.04,0.62,6.34,1824
17:54:16.496,18732,-0.32,0.02,0.78,8.41,1825
17:54:16.506,18742,-0.28,0.09,0.67,7.30,1826
17:54:16.517,18752,-0.32,0.16,0.68,7.69,1827
17:54:16.568,18762,-0.34,0.26,0.68,8.06,1828
17:54:16.569,18772,-0.37,0.30,0.72,8.65,1829
17:54:16.570,18782,-0.39,0.35,0.73,8.94,1830
17:54:16.571,18792,-0.42,0.39,0.76,9.50,1831
17:54:16.572,18802,-0.47,0.46,0.78,10.20,1832
17:54:16.573,18812,-0.55,0.51,0.76,10.65,1833
17:54:16.609,18822,-0.59,0.51,0.67,10.28,1834
17:54:16.610,18832,-0.59,0.39,0.62,9.37,1835
17:54:16.611,18842,-0.60,0.39,0.60,9.36,1836
17:54:16.612,18852,-0.81,0.56,0.25,10.16,1837
17:54:16.642,18862,-0.69,0.49,0.31,9.05,1838
17:54:16.644,18872,-0.78,0.62,0.35,10.55,1839
17:54:16.645,18882,-0.86,0.63,0.48,11.63,1840
17:54:16.684,18892,-0.95,0.46,0.41,11.29,1841
17:54:16.684,18902,-1.01,0.26,0.14,10.49,1842
17:54:16.685,18912,-0.81,0.17,-0.36,9.01,1843
17:54:16.686,18922,-0.50,0.21,-0.74,9.17,1844
17:54:16.724,18932,-0.42,0.15,-1.13,12.17,1845
17:54:16.726,18942,-0.40,0.25,-1.01,11.15,1846
17:54:16.728,18952,-0.70,0.18,-0.53,8.99,1847
17:54:16.728,18962,-0.91,0.21,-0.12,9.45,1848
17:54:16.753,18972,-0.93,0.09,0.13,9.40,1849
17:54:16.753,18982,-0.78,-0.03,0.40,8.74,1850
17:54:16.754,18992,-0.70,0.25,0.40,8.40,1851
17:54:16.765,19002,-0.93,1.04,0.20,14.06,1852
17:54:16.776,19012,-1.19,1.76,0.05,21.25,1853
17:54:16.785,19022,-1.34,2.00,-0.36,24.33,1854
17:54:16.794,19032,-1.39,1.07,-0.47,18.20,1855
17:54:16.813,19042,-1.69,0.40,-0.03,17.38,1856
17:54:16.814,19052,-1.55,0.38,0.06,16.01,1857
17:54:16.827,19062,-1.34,0.18,0.28,13.84,1858
17:54:16.832,19072,-1.09,0.19,0.42,11.81,1859
17:54:16.842,19082,-0.82,0.60,0.32,10.64,1860
17:54:16.859,19092,-0.68,0.76,0.27,10.55,1861
17:54:16.863,19102,-0.81,0.62,0.17,10.33,1862
17:54:16.874,19112,-0.91,0.35,0.08,9.81,1863
17:54:16.883,19122,-0.99,0.08,0.10,10.01,1864
17:54:16.896,19132,-1.02,0.02,0.15,10.34,1865
17:54:16.904,19142,-1.11,0.00,0.22,11.34,1866
17:54:16.914,19152,-1.03,0.24,0.20,10.77,1867
17:54:16.930,19162,-0.90,0.54,0.14,10.58,1868
17:54:16.935,19172,-0.84,0.67,0.11,10.79,1869
17:54:16.964,19182,-0.88,0.61,0.07,10.76,1870
17:54:16.964,19192,-0.93,0.46,0.05,10.39,1871
17:54:16.965,19202,-0.97,0.38,0.04,10.43,1872
17:54:16.975,19212,-1.02,0.35,-0.00,10.76,1873
17:54:16.983,19222,-1.06,0.33,-0.03,11.07,1874
17:54:16.997,19232,-1.05,0.35,-0.07,11.07,1875
17:54:17.013,19242,-1.01,0.38,-0.13,10.82,1876
17:54:17.014,19252,-0.97,0.41,-0.19,10.71,1877
17:54:17.036,19262,-0.98,0.41,-0.21,10.80,1878
17:54:17.036,19272,-0.98,0.39,-0.22,10.76,1879
17:54:17.045,19282,-0.98,0.41,-0.20,10.80,1880
17:54:17.055,19292,-0.94,0.53,-0.19,10.91,1881
17:54:17.068,19302,-0.90,0.57,-0.15,10.74,1882
17:54:17.076,19312,-0.90,0.54,-0.12,10.59,1883
17:54:17.088,19322,-0.93,0.50,-0.11,10.60,1884
17:54:17.093,19332,-0.95,0.48,-0.10,10.69,1885
17:54:17.107,19342,-0.98,0.42,-0.08,10.74,1886
17:54:17.113,19352,-0.98,0.37,-0.06,10.53,1887
17:54:17.123,19362,-0.98,0.37,-0.04,10.51,1888
17:54:17.141,19372,-0.96,0.38,-0.01,10.34,1889
17:54:17.143,19382,-0.93,0.43,0.00,10.25,1890
17:54:17.154,19392,-0.91,0.44,0.02,10.12,1891
17:54:17.163,19402,-0.92,0.43,0.08,10.16,1892
17:54:17.175,19412,-0.91,0.41,0.12,10.05,1893
17:54:17.184,19422,-0.92,0.40,0.16,10.15,1894
17:54:17.193,19432,-0.94,0.39,0.18,10.34,1895
17:54:17.204,19442,-0.92,0.38,0.20,10.17,1896
17:54:17.217,19452,-0.91,0.38,0.18,10.03,1897
17:54:17.223,19462,-0.93,0.38,0.19,10.18,1898
17:54:17.234,19472,-0.93,0.38,0.21,10.28,1899
17:54:17.243,19482,-0.94,0.41,0.18,10.38,1900
17:54:17.257,19492,-0.91,0.46,0.14,10.29,1901
17:54:17.293,19502,-0.91,0.48,0.10,10.30,1902
17:54:17.294,19512,-0.93,0.47,0.07,10.46,1903
17:54:17.295,19522,-0.98,0.47,0.04,10.87,1904
17:54:17.298,19532,-1.03,0.48,-0.02,11.31,1905
17:54:17.336,19542,-1.04,0.43,-0.05,11.28,1906
17:54:17.337,19552,-1.02,0.38,-0.11,10.92,1907
17:54:17.338,19562,-1.02,0.41,-0.13,11.03,1908
17:54:17.339,19572,-0.99,0.43,-0.12,10.83,1909
17:54:17.377,19582,-0.96,0.44,-0.12,10.61,1910
17:54:17.377,19592,-0.96,0.41,-0.10,10.49,1911
17:54:17.379,19602,-0.98,0.38,-0.11,10.55,1912
17:54:17.380,19612,-0.99,0.38,-0.10,10.68,1913
17:54:17.418,19622,-1.02,0.39,-0.06,10.91,1914
17:54:17.418,19632,-1.03,0.43,-0.01,11.12,1915
17:54:17.419,19642,-1.05,0.49,0.03,11.53,1916
17:54:17.420,19652,-1.10,0.54,0.05,12.27,1917
17:54:17.422,19662,-1.14,0.60,-0.02,12.87,1918
17:54:17.455,19672,-1.12,0.67,-0.10,13.13,1919
17:54:17.456,19682,-1.13,0.71,-0.20,13.48,1920
17:54:17.456,19692,-1.15,0.72,-0.22,13.75,1921
17:54:17.494,19702,-1.22,0.79,-0.48,15.34,1922
17:54:17.495,19712,-1.28,0.83,-0.74,16.99,1923
17:54:17.497,19722,-1.33,0.83,-0.76,17.44,1924
17:54:17.499,19732,-1.31,0.76,-0.57,16.17,1925
17:54:17.516,19742,-1.31,0.64,-0.36,14.98,1926
17:54:17.516,19752,-1.27,0.46,-0.12,13.58,1927
17:54:17.529,19762,-1.32,0.34,0.24,13.85,1928
17:54:17.533,19772,-1.30,0.50,0.63,15.29,1929
17:54:17.544,19782,-1.31,0.52,0.95,17.00,1930
17:54:17.555,19792,-1.47,0.53,0.99,18.45,1931
17:54:17.567,19802,-1.53,0.42,1.02,18.84,1932
17:54:17.576,19812,-1.43,0.13,1.02,17.59,1933
17:54:17.585,19822,-1.15,-0.16,1.15,16.37,1934
17:54:17.598,19832,-0.93,-0.24,1.04,14.17,1935
17:54:17.605,19842,-0.72,0.06,1.15,13.59,1936
17:54:17.616,19852,-0.50,0.24,1.25,13.69,1937
17:54:17.627,19862,-0.35,0.28,1.22,13.02,1938
17:54:17.637,19872,-0.37,0.53,0.91,11.14,1939
17:54:17.649,19882,-0.22,0.78,0.63,10.27,1940
17:54:17.653,19892,-0.15,0.79,0.81,11.36,1941
17:54:17.668,19902,-0.39,0.46,0.81,10.11,1942
17:54:17.677,19912,-0.50,0.25,0.76,9.41,1943
17:54:17.686,19922,-0.43,0.16,0.64,7.90,1944
17:54:17.698,19932,-0.21,0.16,0.66,7.12,1945
17:54:17.703,19942,-0.14,0.13,0.73,7.54,1946
17:54:17.713,19952,-0.16,0.25,0.63,6.96,1947
17:54:17.731,19962,-0.20,0.13,0.67,7.10,1948
17:54:17.732,19972,-0.15,0.17,0.57,6.15,1949
17:54:17.747,19982,-0.16,0.17,0.64,6.81,1950
17:54:17.756,19992,-0.23,0.20,0.66,7.26,1951
17:54:17.766,20002,-0.31,0.20,0.70,7.93,1952
17:54:17.777,20012,-0.36,0.20,0.75,8.55,1953
17:54:17.788,20022,-0.23,0.22,0.70,7.67,1954
17:54:17.793,20032,-0.22,0.26,0.72,7.93,1955
17:54:17.809,20042,-0.23,0.34,0.74,8.41,1956
17:54:17.813,20052,-0.25,0.38,0.71,8.48,1957
17:54:17.827,20062,-0.27,0.43,0.65,8.21,1958
17:54:17.836,20072,-0.33,0.61,0.48,8.39,1959
17:54:17.845,20082,-0.35,0.43,0.58,7.99,1960
17:54:17.855,20092,-0.41,0.42,0.62,8.50,1961
17:54:17.863,20102,-0.50,0.41,0.67,9.27,1962
17:54:17.873,20112,-0.59,0.38,0.66,9.68,1963
17:54:17.887,20122,-0.50,0.36,0.52,8.12,1964
17:54:17.897,20132,-0.79,0.28,0.67,10.79,1965
17:54:17.903,20142,-0.84,0.34,0.62,11.04,1966
17:54:17.920,20152,-0.88,0.41,0.52,10.96,1967
17:54:17.922,20162,-0.80,0.40,0.34,9.56,1968
17:54:17.933,20172,-0.79,0.38,0.09,8.78,1969
17:54:17.943,20182,-0.87,0.39,0.03,9.55,1970
17:54:17.955,20192,-1.01,0.45,0.14,11.17,1971
17:54:17.965,20202,-1.12,0.35,0.17,11.82,1972
17:54:17.975,20212,-1.11,0.21,-0.13,11.38,1973
17:54:17.988,20222,-0.72,0.14,-0.56,9.23,1974
17:54:17.995,20232,-0.38,0.18,-1.12,11.96,1975
17:54:18.004,20242,-0.04,0.67,-1.47,16.19,1976
17:54:18.044,20252,-0.48,0.38,-0.84,10.37,1977
17:54:18.045,20262,-0.80,0.15,-0.36,8.85,1978
17:54:18.046,20272,-1.05,0.10,0.05,10.56,1979
17:54:18.047,20282,-1.02,-0.06,0.23,10.48,1980
17:54:18.086,20292,-1.01,-0.24,0.40,11.13,1981
17:54:18.088,20302,-0.81,0.15,0.32,8.84,1982
17:54:18.088,20312,-1.08,1.03,0.13,14.93,1983
17:54:18.089,20322,-1.27,1.69,0.06,21.11,1984
17:54:18.128,20332,-1.17,2.00,-0.38,23.43,1985
17:54:18.128,20342,-1.29,1.00,-0.53,17.18,1986
17:54:18.134,20352,-1.61,0.39,-0.23,16.68,1987
17:54:18.134,20362,-1.61,0.30,-0.10,16.40,1988
17:54:18.134,20372,-1.37,0.07,0.44,14.39,1989
17:54:18.169,20382,-1.09,0.19,0.56,12.36,1990
17:54:18.169,20392,-0.79,0.79,0.44,11.99,1991
17:54:18.170,20402,-0.68,1.05,0.37,13.05,1992
17:54:18.173,20412,-0.73,0.83,0.29,11.37,1993
17:54:18.210,20422,-0.84,0.49,0.08,9.73,1994
17:54:18.210,20432,-0.95,0.10,0.01,9.57,1995
17:54:18.212,20442,-1.03,0.04,-0.00,10.26,1996
17:54:18.213,20452,-1.06,0.12,-0.02,10.71,1997
17:54:18.236,20462,-1.07,0.29,-0.06,11.16,1998
17:54:18.237,20472,-1.02,0.50,-0.16,11.52,1999
17:54:18.280,20482,-0.99,0.45,-0.22,11.09,2000
17:54:18.280,20492,-1.01,0.36,-0.18,10.85,2001
17:54:18.281,20502,-1.03,0.32,-0.12,10.83,2002
17:54:18.283,20512,-1.02,0.31,-0.07,10.68,2003
17:54:18.295,20522,-1.01,0.32,-0.05,10.60,2004
17:54:18.298,20532,-1.01,0.34,-0.04,10.71,2005
17:54:18.306,20542,-1.02,0.38,-0.05,10.92,2006
17:54:18.316,20552,-1.01,0.38,-0.07,10.79,2007
17:54:18.357,20562,-0.99,0.39,-0.08,10.66,2008
17:54:18.369,20572,-0.98,0.39,-0.08,10.55,2009
17:54:18.370,20582,-0.99,0.37,-0.07,10.60,2010
17:54:18.371,20592,-0.99,0.34,-0.04,10.51,2011
17:54:18.385,20602,-0.96,0.35,0.00,10.19,2012
17:54:18.388,20612,-0.93,0.38,0.03,10.08,2013
17:54:18.388,20622,-0.92,0.41,0.05,10.11,2014
17:54:18.396,20632,-0.91,0.44,0.05,10.12,2015
17:54:18.403,20642,-0.91,0.43,0.05,10.08,2016
17:54:18.413,20652,-0.92,0.52,0.05,10.58,2017
17:54:18.423,20662,-1.00,0.41,0.06,10.79,2018
17:54:18.434,20672,-0.89,0.34,0.07,9.58,2019
17:54:18.443,20682,-0.89,0.28,0.09,9.37,2020
17:54:18.454,20692,-0.92,0.36,0.11,9.93,2021
17:54:18.471,20702,-0.91,0.42,0.11,10.05,2022
17:54:18.472,20712,-0.96,0.43,0.13,10.63,2023
17:54:18.483,20722,-0.95,0.39,0.15,10.39,2024
17:54:18.494,20732,-0.91,0.35,0.13,9.88,2025
17:54:18.504,20742,-0.90,0.41,0.13,10.01,2026
17:54:18.518,20752,-0.91,0.45,0.10,10.18,2027
17:54:18.522,20762,-0.95,0.45,0.11,10.55,2028
17:54:18.533,20772,-0.96,0.44,0.10,10.62,2029
17:54:18.544,20782,-0.96,0.42,0.10,10.55,2030
17:54:18.553,20792,-0.94,0.46,0.09,10.51,2031
17:54:18.568,20802,-0.94,0.47,0.07,10.52,2032
17:54:18.573,20812,-0.96,0.49,0.05,10.79,2033
17:54:18.590,20822,-0.98,0.48,0.02,10.95,2034
17:54:18.595,20832,-1.02,0.47,-0.01,11.29,2035
17:54:18.604,20842,-1.04,0.42,-0.05,11.26,2036
17:54:18.614,20852,-1.06,0.40,-0.09,11.31,2037
17:54:18.629,20862,-1.02,0.39,-0.12,11.00,2038
17:54:18.634,20872,-1.02,0.39,-0.12,11.00,2039
17:54:18.649,20882,-0.99,0.41,-0.13,10.85,2040
17:54:18.653,20892,-0.98,0.40,-0.13,10.65,2041
17:54:18.671,20902,-0.97,0.39,-0.13,10.51,2042
17:54:18.673,20912,-0.99,0.35,-0.11,10.56,2043
17:54:18.683,20922,-1.01,0.36,-0.08,10.74,2044
17:54:18.696,20932,-1.06,0.39,-0.06,11.30,2045
17:54:18.704,20942,-1.12,0.42,-0.01,12.00,2046
17:54:18.716,20952,-1.21,0.45,-0.01,12.89,2047
17:54:18.744,20962,-1.23,0.53,-0.07,13.42,2048
17:54:18.744,20972,-1.23,0.60,-0.17,13.77,2049
17:54:18.779,20982,-1.19,0.70,-0.28,14.06,2050
17:54:18.781,20992,-1.14,0.81,-0.32,14.35,2051
17:54:18.781,21002,-1.21,0.90,-0.57,16.16,2052
17:54:18.783,21012,-1.28,0.94,-0.88,18.20,2053
17:54:18.784,21022,-1.35,0.92,-0.85,18.39,2054
17:54:18.816,21032,-1.31,0.82,-0.62,16.67,2055
17:54:18.817,21042,-1.24,0.65,-0.40,14.58,2056
17:54:18.819,21052,-1.27,0.44,-0.11,13.45,2057
17:54:18.823,21062,-1.26,0.45,0.34,13.83,2058
17:54:18.860,21072,-1.29,0.30,0.92,16.18,2059
17:54:18.860,21082,-1.38,0.61,1.33,20.09,2060
17:54:18.861,21092,-1.47,0.51,1.07,18.87,2061
17:54:18.863,21102,-1.32,0.29,1.15,17.69,2062
17:54:18.900,21112,-1.16,0.14,1.19,16.68,2063
17:54:18.902,21122,-0.98,0.08,1.12,14.95,2064
17:54:18.904,21132,-0.73,0.20,1.05,12.99,2065
17:54:18.905,21142,-0.54,0.50,1.07,12.99,2066
17:54:18.942,21152,-0.42,0.52,0.89,11.15,2067
17:54:18.942,21162,-0.34,0.49,0.75,9.60,2068
17:54:18.944,21172,-0.33,0.55,0.66,9.19,2069
17:54:18.945,21182,-0.33,0.58,0.72,9.83,2070
17:54:18.977,21192,-0.41,0.41,0.74,9.44,2071
17:54:18.978,21202,-0.43,0.30,0.76,9.30,2072
17:54:18.978,21212,-0.40,0.24,0.80,9.25,2073
17:54:18.982,21222,-0.32,0.17,0.78,8.61,2074
17:54:18.996,21232,-0.18,0.11,0.74,7.65,2075
17:54:19.005,21242,-0.11,0.06,0.63,6.42,2076
17:54:19.014,21252,-0.14,0.01,0.64,6.57,2077
17:54:19.030,21262,-0.10,0.09,0.65,6.59,2078
17:54:19.033,21272,-0.13,0.13,0.60,6.24,2079
17:54:19.045,21282,-0.21,0.08,0.64,6.77,2080
17:54:19.054,21292,-0.25,0.12,0.61,6.67,2081
17:54:19.065,21302,-0.28,0.15,0.60,6.76,2082
17:54:19.078,21312,-0.30,0.18,0.78,8.56,2083
17:54:19.085,21322,-0.29,0.20,0.64,7.26,2084
17:54:19.094,21332,-0.29,0.22,0.65,7.48,2085
17:54:19.103,21342,-0.32,0.29,0.69,8.07,2086
17:54:19.113,21352,-0.33,0.34,0.63,7.89,2087
17:54:19.124,21362,-0.35,0.36,0.61,7.91,2088
17:54:19.140,21372,-0.39,0.35,0.64,8.27,2089
17:54:19.143,21382,-0.42,0.37,0.69,8.91,2090
17:54:19.154,21392,-0.44,0.41,0.72,9.40,2091
17:54:19.163,21402,-0.28,0.38,0.72,8.60,2092
17:54:19.175,21412,-0.59,0.33,0.78,10.29,2093
17:54:19.187,21422,-0.63,0.35,0.72,10.20,2094
17:54:19.195,21432,-0.68,0.36,0.68,10.27,2095
17:54:19.204,21442,-0.69,0.32,0.59,9.60,2096
17:54:19.213,21452,-0.71,0.31,0.41,8.71,2097
17:54:19.228,21462,-0.74,0.45,0.27,9.05,2098
17:54:19.233,21472,-0.81,0.61,0.26,10.47,2099
17:54:19.251,21482,-0.92,0.70,0.22,11.72,2100
17:54:19.253,21492,-1.02,0.53,0.24,11.78,2101
17:54:19.267,21502,-1.02,0.29,0.09,10.61,2102
17:54:19.277,21512,-0.94,0.19,-0.04,9.59,2103
17:54:19.283,21522,-0.75,0.23,-0.42,8.92,2104
17:54:19.301,21532,-0.44,0.26,-0.90,10.31,2105
17:54:19.303,21542,-0.17,0.40,-1.24,13.13,2106
17:54:19.314,21552,-0.47,0.51,-0.83,10.79,2107
17:54:19.326,21562,-0.80,0.37,-0.41,9.71,2108
17:54:19.333,21572,-0.99,0.06,-0.04,9.94,2109
17:54:19.344,21582,-0.90,-0.08,0.21,9.32,2110
17:54:19.355,21592,-1.09,0.19,0.15,11.15,2111
17:54:19.367,21602,-1.25,1.07,0.09,16.53,2112
17:54:19.378,21612,-1.32,1.74,-0.05,21.85,2113
17:54:19.385,21622,-1.17,1.65,-0.30,20.44,2114
17:54:19.395,21632,-1.25,0.91,-0.28,15.74,2115
17:54:19.404,21642,-1.44,0.73,0.01,16.11,2116
17:54:19.413,21652,-1.44,0.22,0.33,14.97,2117
17:54:19.425,21662,-1.32,0.02,0.56,14.31,2118
17:54:19.433,21672,-1.01,0.39,0.59,12.36,2119
17:54:19.443,21682,-0.83,0.64,0.45,11.37,2120
17:54:19.454,21692,-0.83,0.68,0.32,11.19,2121
17:54:19.464,21702,-0.83,0.55,0.11,10.01,2122
17:54:19.478,21712,-0.92,0.32,-0.03,9.73,2123
17:54:19.484,21722,-1.05,0.11,-0.12,10.60,2124
17:54:19.538,21732,-1.02,0.17,-0.15,10.43,2125
17:54:19.538,21742,-0.97,0.31,-0.17,10.33,2126
17:54:19.541,21752,-0.94,0.44,-0.16,10.47,2127
17:54:19.541,21762,-0.93,0.52,-0.18,10.83,2128
17:54:19.544,21772,-0.99,0.49,-0.19,11.23,2129
17:54:19.544,21782,-1.04,0.40,-0.15,11.26,2130
17:54:19.577,21792,-1.02,0.33,-0.13,10.83,2131
17:54:19.577,21802,-1.03,0.36,-0.12,10.95,2132
17:54:19.577,21812,-1.00,0.41,-0.15,10.93,2133
17:54:19.629,21822,-0.97,0.44,-0.16,10.78,2134
17:54:19.629,21832,-0.97,0.47,-0.17,10.90,2135
17:54:19.630,21842,-0.96,0.44,-0.20,10.80,2136
17:54:19.671,21852,-0.99,0.43,-0.17,10.91,2137
17:54:19.671,21862,-1.00,0.38,-0.13,10.78,2138
17:54:19.672,21872,-0.97,0.35,-0.13,10.41,2139
17:54:19.674,21882,-0.96,0.34,-0.06,10.21,2140
17:54:19.675,21892,-0.94,0.38,-0.03,10.15,2141
17:54:19.675,21902,-0.92,0.43,0.03,10.13,2142
17:54:19.675,21912,-0.88,0.45,0.03,9.95,2143
17:54:19.716,21922,-0.91,0.45,0.03,10.16,2144
17:54:19.716,21932,-0.93,0.41,0.04,10.15,2145
17:54:19.732,21942,-0.93,0.41,0.05,10.17,2146
17:54:19.732,21952,-0.93,0.39,0.07,10.11,2147
17:54:19.766,21962,-0.91,0.39,0.09,9.97,2148
17:54:19.767,21972,-0.92,0.40,0.13,10.12,2149
17:54:19.767,21982,-0.92,0.41,0.16,10.17,2150
17:54:19.787,21992,-0.92,0.39,0.20,10.21,2151
17:54:19.787,22002,-0.92,0.38,0.21,10.16,2152
17:54:19.788,22012,-0.92,0.38,0.24,10.26,2153
17:54:19.791,22022,-0.92,0.40,0.25,10.38,2154
17:54:19.793,22032,-0.93,0.42,0.23,10.44,2155
17:54:19.804,22042,-0.93,0.42,0.20,10.35,2156
17:54:19.821,22052,-0.92,0.44,0.17,10.30,2157
17:54:19.824,22062,-0.93,0.44,0.11,10.40,2158
17:54:19.836,22072,-0.94,0.45,0.06,10.49,2159
17:54:19.844,22082,-0.96,0.42,0.01,10.53,2160
17:54:19.859,22092,-0.97,0.41,-0.04,10.59,2161
17:54:19.864,22102,-1.00,0.41,-0.09,10.84,2162
17:54:19.873,22112,-1.04,0.39,-0.13,11.15,2163
17:54:19.882,22122,-1.03,0.40,-0.16,11.18,2164
17:54:19.894,22132,-1.02,0.43,-0.17,11.18,2165
17:54:19.904,22142,-0.98,0.46,-0.20,11.00,2166
17:54:19.913,22152,-0.97,0.45,-0.21,10.96,2167
17:54:19.930,22162,-1.01,0.37,-0.20,10.93,2168
17:54:19.932,22172,-1.05,0.32,-0.17,11.10,2169
17:54:19.943,22182,-1.09,0.35,-0.09,11.50,2170
17:54:19.954,22192,-1.14,0.40,-0.02,12.10,2171
17:54:19.963,22202,-1.17,0.48,0.01,12.63,2172
17:54:19.973,22212,-1.20,0.50,-0.00,13.01,2173
17:54:19.983,22222,-1.20,0.53,-0.03,13.11,2174
17:54:19.993,22232,-1.19,0.53,-0.08,13.06,2175
17:54:20.024,22242,-1.17,0.57,-0.16,13.10,2176
17:54:20.025,22252,-1.12,0.64,-0.22,13.14,2177
17:54:20.027,22262,-1.10,0.73,-0.28,13.56,2178
17:54:20.036,22272,-1.13,0.83,-0.29,14.30,2179
17:54:20.046,22282,-1.16,0.93,-0.47,15.63,2180
17:54:20.055,22292,-1.20,1.02,-0.62,16.93,2181
17:54:20.066,22302,-1.20,1.07,-0.53,16.91,2182
17:54:20.074,22312,-1.12,0.95,-0.36,15.13,2183
17:54:20.083,22322,-1.11,0.71,-0.17,13.29,2184
17:54:20.094,22332,-1.13,0.48,0.06,12.25,2185
17:54:20.108,22342,-1.00,0.57,0.31,11.95,2186
17:54:20.114,22352,-1.06,0.49,0.73,13.76,2187
17:54:20.123,22362,-1.19,0.42,1.01,16.19,2188
17:54:20.139,22372,-1.07,0.54,0.98,15.45,2189
17:54:20.143,22382,-1.29,0.17,0.91,15.85,2190
17:54:20.160,22392,-1.02,0.22,1.01,14.54,2191
17:54:20.163,22402,-0.84,0.24,0.94,12.81,2192
17:54:20.179,22412,-0.62,0.33,0.83,10.90,2193
17:54:20.183,22422,-0.49,0.37,0.91,10.97,2194
17:54:20.193,22432,-0.39,0.39,0.83,9.96,2195
17:54:20.205,22442,-0.24,0.40,0.74,8.78,2196
17:54:20.214,22452,-0.49,0.54,0.53,9.02,2197
17:54:20.223,22462,-0.52,0.45,0.76,10.23,2198
17:54:20.238,22472,-0.41,0.38,0.73,9.25,2199
17:54:20.242,22482,-0.41,0.31,0.70,8.70,2200
17:54:20.257,22492,-0.39,0.23,0.67,8.09,2201
17:54:20.309,22502,-0.28,0.17,0.69,7.60,2202
17:54:20.309,22512,-0.17,0.13,0.62,6.61,2203
17:54:20.310,22522,-0.19,0.19,0.64,6.91,2204
17:54:20.312,22532,-0.23,0.21,0.65,7.25,2205
17:54:20.313,22542,-0.25,0.20,0.68,7.46,2206
17:54:20.314,22552,-0.27,0.21,0.64,7.24,2207
17:54:20.346,22562,-0.28,0.23,0.63,7.28,2208
17:54:20.347,22572,-0.28,0.24,0.64,7.37,2209
17:54:20.348,22582,-0.25,0.26,0.55,6.62,2210
17:54:20.388,22592,-0.31,0.23,0.59,7.09,2211
17:54:20.388,22602,-0.32,0.21,0.63,7.34,2212
17:54:20.389,22612,-0.36,0.25,0.64,7.78,2213
17:54:20.390,22622,-0.37,0.31,0.61,7.79,2214
17:54:20.392,22632,-0.41,0.36,0.63,8.37,2215
17:54:20.433,22642,-0.41,0.45,0.61,8.59,2216
17:54:20.433,22652,-0.41,0.47,0.60,8.65,2217
17:54:20.433,22662,-0.44,0.44,0.56,8.37,2218
17:54:20.470,22672,-0.50,0.42,0.53,8.42,2219
17:54:20.471,22682,-0.55,0.39,0.59,8.96,2220
17:54:20.472,22692,-0.60,0.36,0.57,9.01,2221
17:54:20.472,22702,-0.67,0.36,0.59,9.67,2222
17:54:20.474,22712,-0.74,0.36,0.61,10.24,2223
17:54:20.496,22722,-0.85,0.38,0.59,11.06,2224
17:54:20.496,22732,-0.89,0.39,0.51,11.00,2225
17:54:20.503,22742,-0.89,0.41,0.38,10.55,2226
17:54:20.516,22752,-0.86,0.50,0.28,10.32,2227
17:54:20.526,22762,-0.81,0.55,0.18,10.01,2228
17:54:20.534,22772,-0.89,0.54,-0.06,10.39,2229
17:54:20.544,22782,-0.90,0.51,-0.03,10.40,2230
17:54:20.553,22792,-1.00,0.40,0.01,10.77,2231
17:54:20.567,22802,-1.02,0.25,-0.09,10.55,2232
17:54:20.572,22812,-0.85,0.15,-0.43,9.64,2233
17:54:20.587,22822,-0.50,0.18,-0.97,11.03,2234
17:54:20.593,22832,-0.09,0.74,-1.44,16.22,2235
17:54:20.603,22842,-0.50,0.32,-0.83,10.20,2236
17:54:20.613,22852,-0.85,0.29,-0.43,9.98,2237
17:54:20.626,22862,-1.05,0.10,-0.14,10.68,2238
17:54:20.634,22872,-0.90,-0.06,0.15,9.19,2239
17:54:20.648,22882,-0.84,0.07,0.24,8.80,2240
17:54:20.653,22892,-1.02,0.88,0.20,13.69,2241
17:54:20.667,22902,-1.05,1.65,0.07,19.52,2242
17:54:20.675,22912,-1.19,2.00,-0.34,23.47,2243
17:54:20.684,22922,-0.88,1.38,-0.29,16.60,2244
17:54:20.700,22932,-1.21,0.87,-0.10,14.91,2245
17:54:20.702,22942,-1.46,0.58,0.01,15.76,2246
17:54:20.714,22952,-1.54,0.04,0.32,15.73,2247
17:54:20.733,22962,-1.41,-0.17,0.61,15.43,2248
17:54:20.734,22972,-1.07,0.16,0.50,11.96,2249
17:54:20.742,22982,-0.83,0.74,0.37,11.69,2250
17:54:20.756,22992,-0.71,0.84,0.19,11.15,2251
17:54:20.764,23002,-0.75,0.64,0.05,9.89,2252
17:54:20.773,23012,-0.84,0.38,-0.03,9.28,2253
17:54:20.783,23022,-0.99,0.17,-0.07,10.06,2254
17:54:20.793,23032,-0.97,0.26,-0.09,10.12,2255
17:54:20.803,23042,-0.98,0.31,-0.13,10.40,2256
17:54:20.820,23052,-1.01,0.40,-0.10,10.87,2257
17:54:20.823,23062,-1.03,0.41,-0.12,11.12,2258
17:54:20.833,23072,-1.05,0.35,-0.12,11.14,2259
17:54:20.844,23082,-1.03,0.32,-0.09,10.81,2260
17:54:20.855,23092,-1.00,0.37,-0.07,10.64,2261
17:54:20.864,23102,-1.00,0.39,-0.06,10.75,2262
17:54:20.873,23112,-0.99,0.39,-0.05,10.61,2263
17:54:20.883,23122,-1.03,0.37,-0.06,10.92,2264
17:54:20.900,23132,-1.06,0.36,-0.12,11.21,2265
17:54:20.902,23142,-1.02,0.40,-0.14,11.06,2266
17:54:20.915,23152,-1.00,0.40,-0.13,10.86,2267
17:54:20.924,23162,-0.99,0.38,-0.12,10.64,2268
17:54:20.934,23172,-0.98,0.37,-0.09,10.51,2269
17:54:20.945,23182,-0.97,0.38,-0.06,10.44,2270
17:54:20.959,23192,-0.96,0.39,-0.04,10.34,2271
17:54:20.963,23202,-0.95,0.41,-0.00,10.35,2272
17:54:21.018,23212,-0.94,0.43,0.01,10.29,2273
17:54:21.019,23222,-0.94,0.41,0.02,10.30,2274
17:54:21.020,23232,-0.94,0.41,0.04,10.31,2275
17:54:21.059,23242,-0.94,0.40,0.04,10.23,2276
17:54:21.060,23252,-0.95,0.39,0.05,10.30,2277
17:54:21.061,23262,-0.95,0.40,0.07,10.28,2278
17:54:21.094,23272,-0.93,0.40,0.11,10.17,2279
17:54:21.096,23282,-0.93,0.39,0.14,10.16,2280
17:54:21.096,23292,-0.93,0.39,0.17,10.20,2281
17:54:21.096,23302,-0.93,0.39,0.19,10.23,2282
17:54:21.208,23312,-0.93,0.37,0.18,10.19,2283
17:54:21.208,23322,-0.94,0.37,0.17,10.25,2284
17:54:21.209,23332,-0.95,0.36,0.14,10.27,2285
17:54:21.210,23342,-0.95,0.37,0.13,10.26,2286
17:54:21.211,23352,-0.94,0.39,0.12,10.29,2287
17:54:21.218,23362,-0.93,0.42,0.09,10.24,2288
17:54:21.218,23372,-0.94,0.43,0.07,10.32,2289
17:54:21.218,23382,-0.95,0.43,0.06,10.45,2290
17:54:21.218,23392,-0.96,0.42,0.03,10.52,2291
17:54:21.218,23402,-0.98,0.42,-0.01,10.63,2292
17:54:21.227,23412,-0.98,0.42,-0.03,10.69,2293
17:54:21.229,23422,-1.01,0.43,-0.05,10.99,2294
17:54:21.229,23432,-1.03,0.45,-0.08,11.30,2295
17:54:21.229,23442,-1.03,0.42,-0.11,11.21,2296
17:54:21.229,23452,-1.01,0.40,-0.13,10.92,2297
17:54:21.229,23462,-0.97,0.41,-0.14,10.63,2298
17:54:21.235,23472,-0.94,0.41,-0.13,10.39,2299
17:54:21.243,23482,-0.97,0.39,-0.10,10.49,2300
17:54:21.256,23492,-1.00,0.35,-0.08,10.66,2301
17:54:21.266,23502,-1.03,0.36,-0.03,10.87,2302
17:54:21.276,23512,-1.06,0.36,0.00,11.20,2303
17:54:21.303,23522,-1.11,0.37,0.03,11.72,2304
17:54:21.304,23532,-1.17,0.42,0.03,12.39,2305
17:54:21.305,23542,-1.16,0.51,-0.01,12.64,2306
17:54:21.316,23552,-1.13,0.58,-0.11,12.75,2307
17:54:21.324,23562,-1.13,0.65,-0.17,13.12,2308
17:54:21.334,23572,-1.10,0.74,-0.23,13.42,2309
17:54:21.349,23582,-1.11,0.79,-0.24,13.82,2310
17:54:21.355,23592,-1.15,0.92,-0.40,15.26,2311
17:54:21.363,23602,-1.19,1.00,-0.59,16.63,2312
17:54:21.375,23612,-1.27,1.04,-0.73,17.92,2313
17:54:21.392,23622,-1.30,0.89,-0.66,17.10,2314
17:54:21.393,23632,-1.33,0.60,-0.42,15.18,2315
17:54:21.403,23642,-1.30,0.34,-0.15,13.50,2316
17:54:21.413,23652,-1.29,0.16,0.22,13.19,2317
17:54:21.429,23662,-1.26,0.30,0.61,14.29,2318
17:54:21.433,23672,-1.28,0.34,0.98,16.48,2319
17:54:21.445,23682,-1.50,0.41,1.03,18.64,2320
17:54:21.454,23692,-1.55,0.37,0.90,18.23,2321
17:54:21.465,23702,-1.28,0.17,0.87,15.54,2322
17:54:21.474,23712,-1.00,0.04,1.16,15.34,2323
17:54:21.484,23722,-0.74,0.03,1.14,13.58,2324
17:54:21.494,23732,-0.57,0.22,0.85,10.45,2325
17:54:21.504,23742,-0.43,0.44,0.93,11.12,2326
17:54:21.520,23752,-0.23,0.47,1.20,13.13,2327
17:54:21.523,23762,-0.21,0.50,1.08,12.06,2328
17:54:21.539,23772,-0.17,0.52,0.72,9.08,2329
17:54:21.543,23782,-0.35,0.44,0.73,9.21,2330
17:54:21.553,23792,-0.48,0.30,0.73,9.24,2331
17:54:21.565,23802,-0.49,0.24,0.76,9.36,2332
17:54:21.575,23812,-0.44,0.21,0.78,9.17,2333
17:54:21.592,23822,-0.34,0.15,0.71,8.02,2334
17:54:21.592,23832,-0.21,0.07,0.56,6.03,2335
17:54:21.608,23842,-0.15,0.13,0.65,6.81,2336
17:54:21.613,23852,-0.23,0.20,0.69,7.58,2337
17:54:21.623,23862,-0.15,0.20,0.66,7.07,2338
17:54:21.636,23872,-0.21,0.10,0.69,7.28,2339
17:54:21.643,23882,-0.23,0.14,0.70,7.50,2340
17:54:21.658,23892,-0.27,0.19,0.63,7.10,2341
17:54:21.663,23902,-0.29,0.17,0.61,7.01,2342
17:54:21.675,23912,-0.29,0.15,0.69,7.68,2343
17:54:21.691,23922,-0.34,0.21,0.82,9.17,2344
17:54:21.692,23932,-0.31,0.22,0.73,8.26,2345
17:54:21.711,23942,-0.31,0.30,0.70,8.27,2346
17:54:21.716,23952,-0.32,0.38,0.64,8.09,2347
17:54:21.731,23962,-0.35,0.41,0.59,7.98,2348
17:54:21.733,23972,-0.40,0.43,0.57,8.16,2349
17:54:21.773,23982,-0.46,0.40,0.56,8.30,2350
17:54:21.773,23992,-0.53,0.34,0.63,8.87,2351
17:54:21.774,24002,-0.66,0.27,0.68,9.87,2352
17:54:21.777,24012,-0.77,0.24,0.68,10.51,2353
17:54:21.804,24022,-0.81,0.24,0.67,10.79,2354
17:54:21.804,24032,-0.80,0.28,0.57,10.18,2355
17:54:21.808,24042,-0.74,0.41,0.49,9.78,2356
17:54:21.846,24052,-0.69,0.59,0.43,10.03,2357
17:54:21.846,24062,-0.62,0.74,0.34,10.19,2358
17:54:21.847,24072,-0.72,0.57,0.03,9.24,2359
17:54:21.849,24082,-0.62,0.58,-0.04,8.46,2360
17:54:21.883,24092,-1.00,0.44,0.24,11.17,2361
17:54:21.883,24102,-1.08,0.23,0.34,11.58,2362
17:54:21.885,24112,-1.18,-0.03,-0.06,11.85,2363
17:54:21.887,24122,-0.94,-0.13,-0.55,11.00,2364
17:54:21.926,24132,-0.55,0.04,-0.92,10.70,2365
17:54:21.926,24142,-0.40,0.14,-1.11,11.89,2366
17:54:21.926,24152,-0.64,0.26,-0.76,10.25,2367
17:54:21.927,24162,-0.88,0.18,-0.36,9.67,2368
17:54:21.966,24172,-0.87,0.14,-0.05,8.77,2369
17:54:21.966,24182,-0.76,0.20,0.11,7.96,2370
17:54:21.967,24192,-1.02,0.79,0.05,12.88,2371
17:54:21.968,24202,-1.12,1.48,-0.02,18.56,2372
17:54:21.981,24212,-1.29,1.93,-0.28,23.34,2373
17:54:21.985,24222,-1.04,1.51,-0.42,18.78,2374
17:54:21.993,24232,-1.26,0.80,-0.19,15.06,2375
17:54:22.004,24242,-1.54,0.59,-0.03,16.48,2376
17:54:22.012,24252,-1.53,0.11,0.37,15.80,2377
17:54:22.029,24262,-1.31,-0.00,0.59,14.37,2378
17:54:22.035,24272,-0.92,0.53,0.49,11.72,2379
17:54:22.046,24282,-0.74,0.89,0.39,12.19,2380
17:54:22.057,24292,-0.71,0.81,0.25,11.06,2381
17:54:22.063,24302,-0.82,0.49,0.15,9.68,2382
17:54:22.075,24312,-0.93,0.14,-0.01,9.44,2383
17:54:22.089,24322,-1.05,-0.04,0.03,10.48,2384
17:54:22.093,24332,-1.13,-0.03,0.03,11.27,2385
17:54:22.103,24342,-1.15,0.06,0.00,11.49,2386
17:54:22.112,24352,-1.04,0.44,-0.05,11.29,2387
17:54:22.123,24362,-0.92,0.59,-0.13,10.98,2388
17:54:22.134,24372,-0.91,0.57,-0.12,10.81,2389
17:54:22.151,24382,-0.98,0.42,-0.09,10.73,2390
17:54:22.154,24392,-1.02,0.30,-0.07,10.67,2391
17:54:22.162,24402,-1.01,0.27,-0.06,10.49,2392
17:54:22.180,24412,-1.02,0.31,-0.09,10.72,2393
17:54:22.184,24422,-1.05,0.35,-0.12,11.09,2394
17:54:22.196,24432,-1.04,0.36,-0.15,11.09,2395
17:54:22.207,24442,-1.02,0.38,-0.15,11.00,2396
17:54:22.217,24452,-1.00,0.36,-0.16,10.74,2397
17:54:22.229,24462,-1.01,0.38,-0.12,10.82,2398
17:54:22.235,24472,-0.99,0.38,-0.09,10.61,2399
17:54:22.243,24482,-0.96,0.39,-0.05,10.39,2400
17:54:22.254,24492,-0.95,0.42,-0.01,10.39,2401
17:54:22.266,24502,-0.94,0.43,0.02,10.36,2402
17:54:22.275,24512,-0.94,0.45,0.02,10.38,2403
17:54:22.287,24522,-0.92,0.44,0.02,10.21,2404
17:54:22.301,24532,-0.94,0.46,0.03,10.47,2405
17:54:22.302,24542,-0.93,0.48,0.02,10.49,2406
17:54:22.336,24552,-0.90,0.32,0.01,9.56,2407
17:54:22.338,24562,-0.96,0.36,0.04,10.29,2408
17:54:22.339,24572,-0.95,0.37,0.03,10.24,2409
17:54:22.345,24582,-0.92,0.35,0.06,9.84,2410
17:54:22.355,24592,-0.94,0.36,0.10,10.09,2411
17:54:22.367,24602,-1.00,0.39,0.16,10.87,2412
17:54:22.372,24612,-0.96,0.39,0.16,10.49,2413
17:54:22.389,24622,-0.93,0.39,0.14,10.22,2414
17:54:22.393,24632,-0.91,0.41,0.13,10.10,2415
17:54:22.409,24642,-0.92,0.41,0.12,10.20,2416
17:54:22.413,24652,-0.95,0.40,0.12,10.40,2417
17:54:22.423,24662,-0.97,0.38,0.11,10.48,2418
17:54:22.465,24672,-0.97,0.39,0.11,10.50,2419
17:54:22.465,24682,-0.97,0.40,0.10,10.53,2420
17:54:22.466,24692,-0.96,0.43,0.06,10.55,2421
17:54:22.506,24702,-0.96,0.46,0.04,10.64,2422
17:54:22.507,24712,-0.97,0.49,0.01,10.88,2423
17:54:22.549,24722,-0.97,0.47,-0.02,10.84,2424
17:54:22.549,24732,-0.98,0.43,-0.04,10.73,2425
17:54:22.620,24742,-1.00,0.42,-0.04,10.81,2426
17:54:22.620,24752,-1.05,0.39,-0.06,11.24,2427
17:54:22.621,24762,-1.04,0.39,-0.07,11.11,2428
17:54:22.623,24772,-0.99,0.41,-0.08,10.73,2429
17:54:22.624,24782,-0.95,0.44,-0.09,10.55,2430
17:54:22.624,24792,-0.91,0.48,-0.08,10.29,2431
17:54:22.624,24802,-0.91,0.46,-0.07,10.24,2432
17:54:22.624,24812,-0.95,0.41,-0.05,10.38,2433
17:54:22.624,24822,-0.95,0.41,-0.04,10.38,2434
17:54:22.652,24832,-0.94,0.45,-0.02,10.43,2435
17:54:22.652,24842,-0.96,0.48,-0.00,10.75,2436
17:54:22.654,24852,-1.04,0.47,0.01,11.43,2437
17:54:22.655,24862,-1.16,0.52,-0.02,12.69,2438
17:54:22.658,24872,-1.16,0.64,-0.10,13.27,2439
17:54:22.703,24882,-1.14,0.71,-0.22,13.58,2440
17:54:22.703,24892,-1.12,0.74,-0.31,13.77,2441
17:54:22.703,24902,-1.17,0.74,-0.52,14.82,2442
17:54:22.703,24912,-1.26,0.74,-0.70,16.16,2443
17:54:22.703,24922,-1.36,0.75,-0.72,17.09,2444
17:54:22.703,24932,-1.42,0.74,-0.72,17.51,2445
17:54:22.707,24942,-1.39,0.65,-0.57,16.35,2446
17:54:22.716,24952,-1.37,0.47,-0.26,14.74,2447
17:54:22.724,24962,-1.40,0.43,-0.01,14.62,2448
17:54:22.737,24972,-1.30,0.43,0.52,14.65,2449
17:54:22.743,24982,-1.13,0.60,0.69,14.54,2450
17:54:22.758,24992,-1.40,0.44,1.13,18.50,2451
17:54:22.763,25002,-1.46,0.40,0.94,17.82,2452
17:54:22.773,25012,-1.30,0.25,0.93,16.23,2453
17:54:22.783,25022,-1.08,0.04,1.14,15.72,2454
17:54:22.793,25032,-0.87,-0.04,1.25,15.22,2455
17:54:22.805,25042,-0.68,-0.04,0.98,11.99,2456
17:54:22.821,25052,-0.47,0.45,0.69,9.50,2457
17:54:22.823,25062,-0.45,0.48,0.91,11.20,2458
17:54:22.837,25072,-0.27,0.32,0.83,9.33,2459
17:54:22.843,25082,-0.30,0.30,0.70,8.20,2460
17:54:22.860,25092,-0.45,0.37,0.67,8.84,2461
17:54:22.863,25102,-0.57,0.29,0.73,9.67,2462
17:54:22.872,25112,-0.67,0.21,0.78,10.51,2463
17:54:22.884,25122,-0.63,0.11,0.76,9.97,2464
17:54:22.895,25132,-0.46,0.03,0.67,8.15,2465
17:54:22.904,25142,-0.26,0.03,0.70,7.50,2466
17:54:22.913,25152,-0.21,0.08,0.70,7.38,2467
17:54:22.929,25162,-0.22,0.18,0.69,7.49,2468
17:54:22.933,25172,-0.24,0.10,0.64,6.91,2469
17:54:22.943,25182,-0.24,0.17,0.66,7.22,2470
17:54:22.953,25192,-0.24,0.15,0.71,7.69,2471
17:54:22.971,25202,-0.25,0.13,0.70,7.54,2472
17:54:22.972,25212,-0.26,0.12,0.66,7.18,2473
17:54:22.983,25222,-0.31,0.12,0.66,7.38,2474
17:54:22.994,25232,-0.32,0.20,0.64,7.44,2475
17:54:23.003,25242,-0.36,0.14,0.78,8.74,2476
17:54:23.019,25252,-0.36,0.22,0.71,8.29,2477
17:54:23.023,25262,-0.37,0.31,0.67,8.27,2478
17:54:23.033,25272,-0.40,0.31,0.70,8.66,2479
17:54:23.045,25282,-0.39,0.41,0.68,8.89,2480
17:54:23.053,25292,-0.35,0.44,0.73,9.26,2481
17:54:23.063,25302,-0.45,0.46,0.72,9.59,2482
17:54:23.086,25312,-0.45,0.45,0.73,9.70,2483
17:54:23.086,25322,-0.47,0.44,0.71,9.61,2484
17:54:23.097,25332,-0.54,0.46,0.66,9.64,2485
17:54:23.103,25342,-0.62,0.44,0.61,9.74,2486
17:54:23.113,25352,-0.68,0.40,0.55,9.64,2487
17:54:23.123,25362,-0.72,0.34,0.41,8.92,2488
17:54:23.133,25372,-0.75,0.46,0.32,9.38,2489
17:54:23.144,25382,-0.81,0.53,0.29,10.14,2490
17:54:23.190,25392,-0.95,0.52,0.26,11.11,2491
17:54:23.190,25402,-1.02,0.34,0.03,10.75,2492
17:54:23.191,25412,-1.04,0.10,-0.01,10.48,2493
17:54:23.193,25422,-0.86,0.01,-0.32,9.23,2494
17:54:23.194,25432,-0.67,0.09,-0.90,11.28,2495
17:54:23.231,25442,-0.25,0.37,-1.29,13.71,2496
17:54:23.232,25452,-0.51,0.48,-1.01,12.34,2497
17:54:23.234,25462,-0.83,0.40,-0.53,10.66,2498
17:54:23.234,25472,-1.04,0.14,-0.16,10.61,2499
17:54:23.273,25482,-0.98,-0.03,0.07,9.85,2500
17:54:23.273,25492,-1.11,0.06,0.05,11.15,2501
17:54:23.274,25502,-1.26,0.61,-0.00,14.01,2502
17:54:23.275,25512,-1.25,1.29,0.03,17.94,2503
17:54:23.313,25522,-1.30,1.63,-0.25,21.04,2504
17:54:23.313,25532,-1.32,0.89,-0.27,16.15,2505
17:54:23.317,25542,-1.27,0.53,-0.01,13.80,2506
17:54:23.317,25552,-1.11,0.62,0.12,12.75,2507
17:54:23.355,25562,-1.03,0.62,0.40,12.65,2508
17:54:23.355,25572,-1.04,0.64,0.33,12.64,2509
17:54:23.356,25582,-0.87,0.60,0.30,10.98,2510
17:54:23.358,25592,-0.81,0.58,0.20,10.18,2511
17:54:23.380,25602,-0.85,0.50,0.10,9.88,2512
17:54:23.389,25612,-0.94,0.37,0.00,10.09,2513
17:54:23.390,25622,-1.00,0.22,-0.07,10.29,2514
17:54:23.394,25632,-1.03,0.24,-0.06,10.60,2515
17:54:23.407,25642,-1.00,0.29,-0.07,10.46,2516
17:54:23.416,25652,-0.96,0.34,-0.02,10.21,2517
17:54:23.429,25662,-0.95,0.41,-0.05,10.36,2518
17:54:23.433,25672,-0.96,0.41,-0.04,10.50,2519
17:54:23.448,25682,-0.99,0.39,-0.03,10.65,2520
17:54:23.453,25692,-1.00,0.35,-0.03,10.56,2521
17:54:23.463,25702,-1.00,0.36,-0.00,10.62,2522
17:54:23.473,25712,-0.99,0.39,-0.02,10.66,2523
17:54:23.483,25722,-0.99,0.35,-0.03,10.48,2524
17:54:23.494,25732,-1.00,0.32,-0.03,10.49,2525
17:54:23.510,25742,-1.00,0.35,-0.00,10.60,2526
17:54:23.513,25752,-0.96,0.42,-0.00,10.47,2527
17:54:23.524,25762,-0.93,0.49,0.01,10.51,2528
17:54:23.535,25772,-0.91,0.49,-0.00,10.33,2529
17:54:23.551,25782,-0.92,0.46,0.00,10.28,2530
17:54:23.552,25792,-0.96,0.38,0.02,10.34,2531
17:54:23.569,25802,-0.99,0.33,0.05,10.51,2532
17:54:23.573,25812,-1.01,0.32,0.05,10.66,2533
17:54:23.587,25822,-1.02,0.31,0.05,10.66,2534
17:54:23.593,25832,-1.00,0.31,0.06,10.52,2535
17:54:23.604,25842,-0.95,0.37,0.07,10.25,2536
17:54:23.641,25852,-0.89,0.43,0.05,9.93,2537
17:54:23.642,25862,-0.88,0.48,0.05,10.06,2538
17:54:23.643,25872,-0.91,0.49,0.09,10.40,2539
17:54:23.645,25882,-0.93,0.44,0.12,10.39,2540
17:54:23.653,25892,-0.93,0.41,0.14,10.28,2541
17:54:23.669,25902,-0.96,0.37,0.15,10.40,2542
17:54:23.674,25912,-0.98,0.35,0.18,10.53,2543
17:54:23.694,25922,-0.97,0.37,0.17,10.50,2544
17:54:23.695,25932,-0.94,0.41,0.15,10.37,2545
17:54:23.715,25942,-0.95,0.41,0.12,10.38,2546
17:54:23.718,25952,-0.92,0.45,0.07,10.29,2547
17:54:23.725,25962,-0.93,0.43,0.01,10.24,2548
17:54:23.736,25972,-0.95,0.43,-0.01,10.46,2549
17:54:23.743,25982,-0.97,0.45,-0.02,10.71,2550
17:54:23.753,25992,-0.97,0.46,-0.02,10.77,2551
17:54:23.766,26002,-0.99,0.42,-0.03,10.74,2552
17:54:23.775,26012,-1.04,0.41,-0.04,11.19,2553
17:54:23.784,26022,-1.08,0.44,-0.09,11.72,2554
17:54:23.794,26032,-1.08,0.46,-0.13,11.76,2555
17:54:23.810,26042,-1.05,0.43,-0.18,11.45,2556
17:54:23.812,26052,-1.04,0.38,-0.20,11.23,2557
17:54:23.823,26062,-1.03,0.37,-0.22,11.15,2558
17:54:23.839,26072,-1.05,0.33,-0.20,11.21,2559
17:54:23.865,26082,-1.07,0.35,-0.19,11.38,2560
17:54:23.866,26092,-1.09,0.39,-0.15,11.66,2561
17:54:23.886,26102,-1.10,0.46,-0.10,12.00,2562
17:54:23.888,26112,-1.17,0.48,-0.07,12.66,2563
17:54:23.889,26122,-1.20,0.55,-0.07,13.23,2564
17:54:23.893,26132,-1.17,0.65,-0.14,13.43,2565
17:54:23.903,26142,-1.15,0.72,-0.21,13.73,2566
17:54:23.955,26152,-1.11,0.81,-0.30,14.09,2567
17:54:23.955,26162,-1.09,0.86,-0.30,14.21,2568
17:54:23.956,26172,-1.15,0.97,-0.46,15.75,2569
17:54:23.958,26182,-1.11,1.06,-0.74,17.04,2570
17:54:23.958,26192,-1.13,1.07,-0.50,16.35,2571
17:54:24.039,26202,-1.05,0.98,-0.32,14.75,2572
17:54:24.040,26212,-1.02,0.80,-0.09,12.95,2573
17:54:24.040,26222,-1.05,0.58,0.22,12.23,2574
17:54:24.041,26232,-1.01,0.57,0.56,12.84,2575
17:54:24.044,26242,-1.17,0.55,0.77,15.01,2576
17:54:24.078,26252,-1.40,0.43,1.09,18.25,2577
17:54:24.079,26262,-1.40,0.42,1.14,18.55,2578
17:54:24.080,26272,-1.27,0.24,1.15,17.30,2579
17:54:24.080,26282,-1.08,0.02,1.09,15.37,2580
17:54:24.081,26292,-0.91,0.05,0.97,13.35,2581
17:54:24.082,26302,-0.56,0.21,1.03,11.93,2582
17:54:24.085,26312,-0.52,0.38,0.92,11.24,2583
17:54:24.119,26322,-0.36,0.34,0.67,8.32,2584
17:54:24.121,26332,-0.36,0.50,0.66,9.01,2585
17:54:24.123,26342,-0.46,0.51,0.62,9.20,2586
17:54:24.123,26352,-0.45,0.39,0.71,9.26,2587
17:54:24.126,26362,-0.46,0.33,0.68,8.83,2588
17:54:24.135,26372,-0.52,0.26,0.62,8.47,2589
17:54:24.146,26382,-0.39,0.24,0.64,7.88,2590
17:54:24.155,26392,-0.24,0.18,0.66,7.25,2591
17:54:24.168,26402,-0.22,0.22,0.67,7.36,2592
17:54:24.173,26412,-0.24,0.20,0.69,7.53,2593
17:54:24.188,26422,-0.23,0.23,0.63,7.05,2594
17:54:24.194,26432,-0.24,0.27,0.58,6.82,2595
17:54:24.208,26442,-0.29,0.21,0.63,7.22,2596
17:54:24.213,26452,-0.28,0.20,0.66,7.48,2597
17:54:24.223,26462,-0.31,0.26,0.64,7.56,2598
17:54:24.236,26472,-0.33,0.23,0.62,7.39,2599
17:54:24.244,26482,-0.34,0.25,0.62,7.45,2600
17:54:24.253,26492,-0.32,0.37,0.66,8.23,2601
17:54:24.272,26502,-0.39,0.28,0.62,7.86,2602
17:54:24.272,26512,-0.41,0.32,0.62,8.12,2603
17:54:24.287,26522,-0.42,0.38,0.63,8.52,2604
17:54:24.293,26532,-0.43,0.39,0.60,8.35,2605
17:54:24.311,26542,-0.45,0.40,0.61,8.56,2606
17:54:24.312,26552,-0.49,0.56,0.58,9.46,2607
17:54:24.323,26562,-0.50,0.42,0.59,8.78,2608
17:54:24.336,26572,-0.58,0.37,0.61,9.19,2609
17:54:24.345,26582,-0.61,0.37,0.59,9.24,2610
17:54:24.355,26592,-0.68,0.36,0.58,9.61,2611
17:54:24.362,26602,-0.79,0.30,0.61,10.40,2612
17:54:24.379,26612,-0.87,0.27,0.56,10.71,2613
17:54:24.382,26622,-0.91,0.27,0.46,10.58,2614
17:54:24.400,26632,-0.87,0.37,0.35,10.09,2615
17:54:24.403,26642,-0.78,0.46,0.28,9.52,2616
17:54:24.421,26652,-0.75,0.53,0.12,9.27,2617
17:54:24.423,26662,-0.82,0.63,0.18,10.53,2618
17:54:24.433,26672,-0.75,0.73,-0.01,10.47,2619
17:54:24.444,26682,-0.75,0.57,0.09,9.49,2620
17:54:24.454,26692,-0.89,0.31,0.04,9.44,2621
17:54:24.463,26702,-0.83,0.16,-0.31,8.97,2622
17:54:24.474,26712,-0.66,0.08,-0.69,9.61,2623
17:54:24.484,26722,-0.46,0.10,-0.99,11.00,2624
17:54:24.502,26732,-0.48,0.18,-0.88,10.16,2625
17:54:24.503,26742,-0.69,0.18,-0.48,8.65,2626
17:54:24.515,26752,-0.92,0.17,-0.15,9.48,2627
17:54:24.524,26762,-1.01,-0.09,0.10,10.18,2628
17:54:24.540,26772,-0.96,-0.07,0.25,9.91,2629
17:54:24.543,26782,-1.09,0.40,0.09,11.61,2630
17:54:24.553,26792,-1.29,1.16,-0.02,17.38,2631
17:54:24.570,26802,-1.37,1.75,-0.22,22.37,2632
17:54:24.573,26812,-1.01,1.45,-0.30,17.89,2633
17:54:24.583,26822,-1.12,1.12,-0.33,16.24,2634
17:54:24.599,26832,-1.26,1.13,0.00,16.90,2635
17:54:24.603,26842,-1.24,0.49,0.33,13.76,2636
17:54:24.612,26852,-1.28,0.18,0.60,14.25,2637
17:54:24.653,26862,-1.03,0.50,0.74,13.59,2638
17:54:24.655,26872,-0.85,0.80,0.55,12.88,2639
17:54:24.658,26882,-0.85,0.70,0.39,11.67,2640
17:54:24.658,26892,-0.91,0.41,0.23,10.27,2641
17:54:24.697,26902,-1.05,0.10,0.09,10.60,2642
17:54:24.697,26912,-1.08,-0.06,-0.05,10.85,2643
17:54:24.702,26922,-1.04,0.06,-0.13,10.48,2644
17:54:24.702,26932,-1.01,0.28,-0.10,10.51,2645
17:54:24.735,26942,-0.97,0.50,-0.24,11.20,2646
17:54:24.738,26952,-0.96,0.50,-0.30,11.25,2647
17:54:24.738,26962,-1.01,0.39,-0.26,11.14,2648
17:54:24.740,26972,-1.04,0.31,-0.21,10.99,2649
17:54:24.778,26982,-1.03,0.29,-0.19,10.85,2650
17:54:24.778,26992,-1.00,0.31,-0.19,10.67,2651
17:54:24.779,27002,-1.02,0.34,-0.18,10.88,2652
17:54:24.780,27012,-1.04,0.39,-0.19,11.30,2653
17:54:24.783,27022,-1.01,0.40,-0.22,11.11,2654
17:54:24.818,27032,-0.99,0.38,-0.24,10.93,2655
17:54:24.819,27042,-0.97,0.40,-0.19,10.63,2656
17:54:24.821,27052,-0.97,0.37,-0.15,10.52,2657
17:54:24.823,27062,-0.98,0.39,-0.08,10.55,2658
17:54:24.846,27072,-0.92,0.42,-0.01,10.13,2659
17:54:24.848,27082,-0.91,0.44,0.05,10.15,2660
17:54:24.853,27092,-0.91,0.44,0.09,10.16,2661
17:54:24.866,27102,-0.94,0.41,0.10,10.28,2662
17:54:24.875,27112,-0.95,0.41,0.08,10.35,2663
17:54:24.884,27122,-0.94,0.37,0.07,10.18,2664
17:54:24.895,27132,-0.92,0.40,0.06,10.09,2665
17:54:24.903,27142,-0.90,0.38,0.03,9.73,2666
17:54:24.920,27152,-0.93,0.41,0.08,10.22,2667
17:54:24.925,27162,-0.91,0.39,0.10,9.96,2668
17:54:24.953,27172,-0.94,0.38,0.16,10.28,2669
17:54:24.954,27182,-0.92,0.38,0.18,10.16,2670
17:54:24.955,27192,-0.93,0.38,0.20,10.23,2671
17:54:24.963,27202,-0.93,0.39,0.21,10.25,2672
17:54:24.974,27212,-0.93,0.39,0.19,10.25,2673
17:54:24.984,27222,-0.95,0.41,0.17,10.45,2674
17:54:24.992,27232,-0.93,0.41,0.15,10.26,2675
17:54:25.008,27242,-0.93,0.41,0.12,10.23,2676
17:54:25.012,27252,-0.95,0.42,0.11,10.47,2677
17:54:25.024,27262,-0.96,0.44,0.09,10.63,2678
17:54:25.034,27272,-0.97,0.45,0.04,10.72,2679
17:54:25.046,27282,-0.99,0.46,0.01,10.95,2680
17:54:25.055,27292,-1.03,0.46,-0.03,11.26,2681
17:54:25.063,27302,-1.03,0.46,-0.07,11.32,2682
17:54:25.073,27312,-1.05,0.38,-0.10,11.23,2683
17:54:25.083,27322,-1.04,0.36,-0.13,11.11,2684
17:54:25.098,27332,-1.01,0.41,-0.14,10.95,2685
17:54:25.103,27342,-0.96,0.44,-0.14,10.67,2686
17:54:25.113,27352,-0.93,0.41,-0.17,10.31,2687
17:54:25.143,27362,-0.94,0.37,-0.18,10.28,2688
17:54:25.144,27372,-0.99,0.34,-0.17,10.59,2689
17:54:25.146,27382,-1.02,0.35,-0.13,10.90,2690
17:54:25.179,27392,-1.07,0.40,-0.08,11.44,2691
17:54:25.179,27402,-1.14,0.46,-0.08,12.34,2692
17:54:25.181,27412,-1.23,0.48,-0.02,13.26,2693
17:54:25.183,27422,-1.21,0.62,-0.08,13.65,2694
17:54:25.194,27432,-1.18,0.71,-0.18,13.88,2695
17:54:25.205,27442,-1.14,0.77,-0.24,13.99,2696
17:54:25.216,27452,-1.12,0.85,-0.23,14.20,2697
17:54:25.223,27462,-1.16,0.99,-0.51,16.08,2698
17:54:25.233,27472,-1.20,1.07,-0.78,17.85,2699
17:54:25.247,27482,-1.27,0.98,-0.63,17.21,2700
17:54:25.253,27492,-1.24,0.81,-0.46,15.49,2701
17:54:25.263,27502,-1.21,0.61,-0.19,13.66,2702
17:54:25.272,27512,-1.20,0.41,0.11,12.71,2703
17:54:25.283,27522,-1.21,0.41,0.48,13.65,2704
17:54:25.292,27532,-1.18,0.51,0.92,15.82,2705
17:54:25.304,27542,-1.51,0.47,1.10,19.28,2706
17:54:25.322,27552,-1.67,0.48,1.03,20.23,2707
17:54:25.330,27562,-1.44,0.20,1.11,18.34,2708
17:54:25.332,27572,-1.16,-0.04,1.19,16.58,2709
17:54:25.371,27582,-0.89,-0.09,1.09,14.11,2710
17:54:25.371,27592,-0.75,0.15,0.83,11.26,2711
17:54:25.372,27602,-0.62,0.25,0.98,11.88,2712
17:54:25.374,27612,-0.48,0.16,1.30,13.99,2713
17:54:25.412,27622,-0.43,0.45,0.76,9.82,2714
17:54:25.413,27632,-0.35,0.50,0.72,9.40,2715
17:54:25.414,27642,-0.44,0.48,0.58,8.71,2716
17:54:25.415,27652,-0.40,0.44,0.68,9.10,2717
17:54:25.454,27662,-0.44,0.35,0.73,9.17,2718
17:54:25.456,27672,-0.48,0.25,0.69,8.72,2719
17:54:25.456,27682,-0.38,0.18,0.63,7.60,2720
17:54:25.456,27692,-0.27,0.13,0.63,7.02,2721
17:54:25.495,27702,-0.22,0.12,0.67,7.15,2722
17:54:25.495,27712,-0.26,0.14,0.68,7.41,2723
17:54:25.497,27722,-0.26,0.17,0.66,7.26,2724
17:54:25.497,27732,-0.29,0.17,0.64,7.27,2725
17:54:25.534,27742,-0.30,0.16,0.63,7.13,2726
17:54:25.535,27752,-0.33,0.19,0.62,7.25,2727
17:54:25.536,27762,-0.37,0.10,0.67,7.68,2728
17:54:25.538,27772,-0.35,0.11,0.66,7.54,2729
17:54:25.562,27782,-0.35,0.18,0.70,8.08,2730
17:54:25.563,27792,-0.35,0.22,0.70,8.17,2731
17:54:25.564,27802,-0.33,0.29,0.68,8.08,2732
17:54:25.581,27812,-0.33,0.35,0.67,8.23,2733
17:54:25.583,27822,-0.34,0.42,0.67,8.61,2734
17:54:25.594,27832,-0.35,0.50,0.66,8.98,2735
17:54:25.605,27842,-0.40,0.60,0.60,9.43,2736
17:54:25.614,27852,-0.42,0.55,0.63,9.34,2737
17:54:25.625,27862,-0.47,0.50,0.64,9.34,2738
17:54:25.633,27872,-0.57,0.39,0.64,9.42,2739
17:54:25.643,27882,-0.70,0.31,0.66,10.14,2740
17:54:25.652,27892,-0.83,0.26,0.62,10.71,2741
17:54:25.667,27902,-0.87,0.29,0.52,10.57,2742
17:54:25.673,27912,-0.83,0.38,0.44,10.09,2743
17:54:25.690,27922,-0.74,0.44,0.29,9.08,2744
17:54:25.693,27932,-0.71,0.43,0.14,8.37,2745
17:54:25.703,27942,-0.76,0.52,0.22,9.48,2746
17:54:25.719,27952,-0.88,0.58,0.13,10.57,2747
17:54:25.722,27962,-1.00,0.28,0.14,10.48,2748
17:54:25.735,27972,-1.07,0.09,-0.11,10.81,2749
17:54:25.744,27982,-0.79,0.03,-0.49,9.31,2750
17:54:25.760,27992,-0.51,0.18,-0.91,10.54,2751
17:54:25.763,28002,-0.37,0.32,-1.10,12.08,2752
17:54:25.774,28012,-0.49,0.34,-0.80,9.99,2753
17:54:25.788,28022,-0.86,0.28,-0.38,9.80,2754
17:54:25.792,28032,-1.02,0.07,-0.06,10.20,2755
17:54:25.802,28042,-0.93,-0.05,0.21,9.54,2756
17:54:25.813,28052,-0.87,-0.02,0.25,9.03,2757
17:54:25.823,28062,-1.21,0.56,0.11,13.41,2758
17:54:25.835,28072,-1.31,1.31,0.13,18.60,2759
17:54:25.843,28082,-1.34,1.82,-0.13,22.63,2760
17:54:25.858,28092,-0.93,1.54,-0.35,18.30,2761
17:54:25.863,28102,-1.00,1.09,-0.23,15.00,2762
17:54:25.880,28112,-1.18,1.02,-0.01,15.62,2763
17:54:25.883,28122,-1.28,0.38,0.23,13.57,2764
17:54:25.894,28132,-1.37,0.02,0.47,14.52,2765
17:54:25.904,28142,-1.12,0.22,0.53,12.60,2766
17:54:25.918,28152,-0.88,0.68,0.37,11.70,2767
17:54:25.923,28162,-0.81,0.79,0.20,11.48,2768
17:54:25.933,28172,-0.85,0.56,0.11,10.19,2769
17:54:25.943,28182,-0.90,0.26,0.07,9.44,2770
17:54:25.955,28192,-0.96,0.11,0.02,9.68,2771
17:54:25.969,28202,-1.01,0.15,-0.03,10.25,2772
17:54:25.973,28212,-1.03,0.24,-0.00,10.54,2773
17:54:25.986,28222,-1.01,0.37,-0.02,10.73,2774
17:54:25.996,28232,-0.97,0.34,-0.10,10.37,2775
17:54:26.006,28242,-0.95,0.45,-0.08,10.57,2776
17:54:26.013,28252,-0.96,0.42,-0.06,10.54,2777
17:54:26.023,28262,-0.99,0.35,-0.06,10.51,2778
17:54:26.034,28272,-1.01,0.29,-0.06,10.53,2779
17:54:26.050,28282,-1.01,0.30,-0.08,10.55,2780
17:54:26.052,28292,-1.01,0.37,-0.09,10.76,2781
17:54:26.063,28302,-0.97,0.44,-0.13,10.78,2782
17:54:26.112,28312,-0.95,0.48,-0.13,10.77,2783
17:54:26.114,28322,-0.96,0.45,-0.11,10.62,2784
17:54:26.115,28332,-1.00,0.35,-0.05,10.63,2785
17:54:26.115,28342,-0.99,0.29,-0.01,10.35,2786
17:54:26.117,28352,-0.99,0.30,0.01,10.37,2787
17:54:26.145,28362,-0.97,0.33,0.06,10.22,2788
17:54:26.146,28372,-0.96,0.36,0.06,10.22,2789
17:54:26.148,28382,-0.96,0.38,0.09,10.43,2790
17:54:26.187,28392,-0.96,0.41,0.08,10.49,2791
17:54:26.188,28402,-0.96,0.42,0.08,10.51,2792
17:54:26.190,28412,-0.93,0.41,0.07,10.23,2793
17:54:26.194,28422,-0.93,0.40,0.06,10.17,2794
17:54:26.194,28432,-0.94,0.39,0.05,10.15,2795
17:54:26.282,28442,-0.95,0.38,0.07,10.23,2796
17:54:26.283,28452,-0.93,0.39,0.09,10.15,2797
17:54:26.283,28462,-0.93,0.37,0.10,10.09,2798
17:54:26.287,28472,-0.95,0.38,0.09,10.28,2799
17:54:26.287,28482,-0.96,0.38,0.10,10.41,2800
17:54:26.308,28492,-0.96,0.40,0.09,10.47,2801
17:54:26.309,28502,-0.96,0.39,0.10,10.39,2802
17:54:26.309,28512,-0.93,0.44,0.10,10.35,2803
17:54:26.309,28522,-0.94,0.46,0.11,10.55,2804
17:54:26.311,28532,-0.97,0.46,0.10,10.78,2805
17:54:26.311,28542,-1.00,0.49,0.08,11.18,2806
17:54:26.313,28552,-1.03,0.50,0.05,11.44,2807
17:54:26.323,28562,-1.02,0.48,0.01,11.31,2808
17:54:26.333,28572,-1.03,0.45,-0.03,11.20,2809
17:54:26.344,28582,-1.03,0.43,-0.07,11.16,2810
17:54:26.358,28592,-1.03,0.41,-0.10,11.14,2811
17:54:26.362,28602,-1.00,0.40,-0.13,10.86,2812
17:54:26.373,28612,-0.97,0.37,-0.15,10.53,2813
17:54:26.384,28622,-0.95,0.38,-0.14,10.33,2814
17:54:26.424,28632,-0.94,0.37,-0.13,10.24,2815
17:54:26.425,28642,-0.95,0.39,-0.13,10.34,2816
17:54:26.426,28652,-0.98,0.42,-0.10,10.67,2817
17:54:26.427,28662,-1.00,0.45,-0.09,11.04,2818
17:54:26.432,28672,-1.05,0.53,-0.09,11.81,2819
17:54:26.483,28682,-1.15,0.55,-0.08,12.77,2820
17:54:26.491,28692,-1.25,0.64,-0.12,14.05,2821
17:54:26.491,28702,-1.20,0.80,-0.21,14.63,2822
17:54:26.493,28712,-1.17,0.90,-0.30,15.07,2823
17:54:26.495,28722,-1.15,0.96,-0.42,15.52,2824
17:54:26.495,28732,-1.21,1.05,-0.67,17.36,2825
17:54:26.507,28742,-1.22,1.11,-0.80,18.34,2826
17:54:26.518,28752,-1.23,1.02,-0.68,17.35,2827
17:54:26.528,28762,-1.21,0.71,-0.42,14.66,2828
17:54:26.534,28772,-1.21,0.46,-0.05,12.92,2829
17:54:26.549,28782,-1.30,0.39,0.33,13.95,2830
17:54:26.552,28792,-1.27,0.49,0.77,15.58,2831
17:54:26.562,28802,-1.48,0.45,1.42,20.95,2832
17:54:26.577,28812,-1.80,0.50,1.17,22.08,2833
17:54:26.585,28822,-1.73,0.22,0.95,19.81,2834
17:54:26.594,28832,-1.24,0.05,1.15,16.92,2835
17:54:26.603,28842,-0.98,-0.31,1.26,16.28,2836
17:54:26.613,28852,-0.71,0.01,1.01,12.32,2837
17:54:26.623,28862,-0.57,0.30,1.17,13.34,2838
17:54:26.639,28872,-0.55,0.57,1.26,14.86,2839
17:54:26.643,28882,-0.35,0.55,0.84,10.61,2840
17:54:26.655,28892,-0.35,0.47,0.58,8.20,2841
17:54:26.663,28902,-0.25,0.56,0.66,8.99,2842
17:54:26.679,28912,-0.32,0.50,0.67,8.94,2843
17:54:26.683,28922,-0.51,0.33,0.70,9.27,2844
17:54:26.693,28932,-0.54,0.15,0.71,9.09,2845
17:54:26.703,28942,-0.42,0.15,0.75,8.77,2846
17:54:26.716,28952,-0.26,0.21,0.62,7.03,2847
17:54:26.726,28962,-0.19,0.13,0.65,6.84,2848
17:54:26.735,28972,-0.20,0.20,0.64,7.01,2849
17:54:26.743,28982,-0.21,0.25,0.72,7.95,2850
17:54:26.788,28992,-0.23,0.15,0.62,6.80,2851
17:54:26.790,29002,-0.30,0.11,0.66,7.38,2852
17:54:26.793,29012,-0.31,0.15,0.62,7.09,2853
17:54:26.795,29022,-0.34,0.13,0.65,7.40,2854
17:54:26.795,29032,-0.12,0.33,0.99,10.53,2855
17:54:26.829,29042,-0.34,0.19,0.69,7.96,2856
17:54:26.830,29052,-0.31,0.24,0.70,8.01,2857
17:54:26.832,29062,-0.33,0.30,0.68,8.11,2858
17:54:26.835,29072,-0.32,0.37,0.64,8.09,2859
17:54:26.871,29082,-0.35,0.43,0.61,8.24,2860
17:54:26.871,29092,-0.42,0.43,0.61,8.54,2861
17:54:26.873,29102,-0.42,0.35,0.68,8.69,2862
17:54:26.874,29112,-0.49,0.37,0.67,9.11,2863
17:54:26.910,29122,-0.58,0.35,0.74,10.03,2864
17:54:26.910,29132,-0.67,0.31,0.74,10.45,2865
17:54:26.912,29142,-0.73,0.29,0.71,10.61,2866
17:54:26.913,29152,-0.76,0.31,0.67,10.59,2867
17:54:26.950,29162,-0.73,0.42,0.56,10.10,2868
