timestamp,time,ax,ay,az,mag,time2
16:36:59.897,8110,-0.86,-0.58,0.03,10.38,761
16:36:59.899,8120,-0.87,-0.57,0.03,10.39,762
16:36:59.909,8130,-0.86,-0.57,0.03,10.34,763
16:36:59.924,8140,-0.86,-0.58,0.03,10.35,764
16:36:59.927,8150,-0.86,-0.57,0.03,10.36,765
16:36:59.939,8160,-0.86,-0.58,0.03,10.32,766
16:36:59.949,8170,-0.86,-0.58,0.03,10.40,767
16:36:59.957,8180,-0.86,-0.58,0.05,10.35,768
16:36:59.972,8190,-0.86,-0.57,0.03,10.35,769
16:36:59.977,8200,-0.86,-0.58,0.06,10.34,770
16:36:59.985,8210,-0.86,-0.58,0.05,10.37,771
16:37:00.005,8220,-0.85,-0.58,0.05,10.32,772
16:37:00.006,8230,-0.86,-0.58,0.05,10.34,773
16:37:00.022,8240,-0.85,-0.57,0.05,10.27,774
16:37:00.025,8250,-0.86,-0.57,0.04,10.31,775
16:37:00.037,8260,-0.86,-0.57,0.03,10.29,776
16:37:00.083,8270,-0.86,-0.56,0.03,10.23,777
16:37:00.084,8280,-0.86,-0.55,0.03,10.24,778
16:37:00.084,8290,-0.87,-0.57,0.03,10.35,779
16:37:00.086,8300,-0.87,-0.57,0.04,10.41,780
16:37:00.100,8310,-0.87,-0.57,0.05,10.42,781
16:37:00.102,8320,-0.88,-0.58,0.05,10.50,782
16:37:00.107,8330,-0.87,-0.57,0.05,10.41,783
16:37:00.124,8340,-0.86,-0.56,0.04,10.23,784
16:37:00.126,8350,-0.86,-0.57,0.05,10.35,785
16:37:00.139,8360,-0.86,-0.58,0.05,10.39,786
16:37:00.149,8370,-0.85,-0.58,0.04,10.31,787
16:37:00.160,8380,-0.85,-0.58,0.02,10.29,788
16:37:00.169,8390,-0.86,-0.58,0.04,10.36,789
16:37:00.179,8400,-0.86,-0.58,0.03,10.33,790
16:37:00.189,8410,-0.86,-0.57,0.01,10.36,791
16:37:00.198,8420,-0.86,-0.58,0.02,10.34,792
16:37:00.208,8430,-0.86,-0.59,0.02,10.44,793
16:37:00.217,8440,-0.86,-0.58,0.02,10.40,794
16:37:00.227,8450,-0.86,-0.58,0.03,10.33,795
16:37:00.238,8460,-0.85,-0.58,0.02,10.31,796
16:37:00.252,8470,-0.86,-0.59,0.03,10.39,797
16:37:00.256,8480,-0.85,-0.58,0.05,10.32,798
16:37:00.294,8490,-0.86,-0.58,0.05,10.34,799
16:37:00.295,8500,-0.86,-0.57,0.05,10.32,800
16:37:00.296,8510,-0.85,-0.57,0.07,10.31,801
16:37:00.297,8520,-0.85,-0.58,0.05,10.27,802
16:37:00.335,8530,-0.85,-0.59,0.06,10.39,803
16:37:00.336,8540,-0.84,-0.59,0.07,10.32,804
16:37:00.338,8550,-0.84,-0.59,0.07,10.33,805
16:37:00.338,8560,-0.85,-0.60,0.07,10.41,806
16:37:00.377,8570,-0.85,-0.59,0.07,10.40,807
16:37:00.379,8580,-0.84,-0.59,0.07,10.31,808
16:37:00.379,8590,-0.84,-0.58,0.07,10.27,809
16:37:00.380,8600,-0.84,-0.59,0.07,10.23,810
16:37:00.417,8610,-0.84,-0.58,0.06,10.26,811
16:37:00.419,8620,-0.84,-0.58,0.06,10.25,812
16:37:00.420,8630,-0.84,-0.58,0.05,10.27,813
16:37:00.422,8640,-0.85,-0.58,0.06,10.36,814
16:37:00.459,8650,-0.86,-0.58,0.06,10.38,815
16:37:00.459,8660,-0.86,-0.59,0.07,10.42,816
16:37:00.460,8670,-0.85,-0.58,0.06,10.26,817
16:37:00.461,8680,-0.85,-0.58,0.07,10.31,818
16:37:00.485,8690,-0.85,-0.58,0.06,10.29,819
16:37:00.485,8700,-0.85,-0.57,0.05,10.26,820
16:37:00.492,8710,-0.84,-0.57,0.06,10.21,821
16:37:00.503,8720,-0.85,-0.56,0.06,10.22,822
16:37:00.507,8730,-0.86,-0.57,0.06,10.36,823
16:37:00.522,8740,-0.86,-0.58,0.07,10.37,824
16:37:00.525,8750,-0.85,-0.58,0.05,10.33,825
16:37:00.535,8760,-0.84,-0.58,0.06,10.24,826
16:37:00.545,8770,-0.85,-0.58,0.06,10.26,827
16:37:00.557,8780,-0.84,-0.58,0.06,10.29,828
16:37:00.565,8790,-0.85,-0.59,0.07,10.36,829
16:37:00.575,8800,-0.84,-0.59,0.07,10.29,830
16:37:00.590,8810,-0.84,-0.58,0.07,10.23,831
16:37:00.596,8820,-0.84,-0.58,0.07,10.24,832
16:37:00.606,8830,-0.84,-0.58,0.07,10.21,833
16:37:00.620,8840,-0.84,-0.58,0.07,10.26,834
16:37:00.626,8850,-0.83,-0.60,0.07,10.26,835
16:37:00.638,8860,-0.83,-0.62,0.08,10.38,836
16:37:00.648,8870,-0.83,-0.61,0.08,10.37,837
16:37:00.658,8880,-0.83,-0.61,0.08,10.35,838
16:37:00.668,8890,-0.83,-0.59,0.07,10.25,839
16:37:00.676,8900,-0.83,-0.59,0.07,10.25,840
16:37:00.686,8910,-0.83,-0.58,0.07,10.17,841
16:37:00.697,8920,-0.84,-0.59,0.08,10.27,842
16:37:00.714,8930,-0.84,-0.58,0.08,10.22,843
16:37:00.716,8940,-0.83,-0.57,0.07,10.14,844
16:37:00.726,8950,-0.82,-0.58,0.06,10.12,845
16:37:00.737,8960,-0.83,-0.61,0.06,10.33,846
16:37:00.750,8970,-0.83,-0.62,0.06,10.37,847
16:37:00.756,8980,-0.84,-0.62,0.06,10.49,848
16:37:00.766,8990,-0.85,-0.60,0.05,10.38,849
16:37:00.776,9000,-0.85,-0.59,0.05,10.36,850
16:37:00.787,9010,-0.84,-0.57,0.06,10.19,851
16:37:00.824,9020,-0.84,-0.57,0.05,10.18,852
16:37:00.827,9030,-0.84,-0.59,0.05,10.24,853
16:37:00.827,9040,-0.84,-0.61,0.04,10.34,854
16:37:00.827,9050,-0.84,-0.61,0.03,10.44,855
16:37:00.843,9060,-0.85,-0.60,0.04,10.42,856
16:37:00.846,9070,-0.86,-0.58,0.04,10.38,857
16:37:00.859,9080,-0.87,-0.56,0.05,10.42,858
16:37:00.867,9090,-0.88,-0.56,0.05,10.39,859
16:37:00.877,9100,-0.86,-0.56,0.04,10.27,860
16:37:00.885,9110,-0.85,-0.57,0.04,10.25,861
16:37:00.901,9120,-0.85,-0.59,0.03,10.34,862
16:37:00.906,9130,-0.85,-0.59,0.02,10.33,863
16:37:00.919,9140,-0.84,-0.59,0.03,10.32,864
16:37:00.926,9150,-0.85,-0.58,0.03,10.36,865
16:37:00.943,9160,-0.87,-0.57,0.02,10.35,866
16:37:00.947,9170,-0.87,-0.55,0.03,10.30,867
16:37:00.962,9180,-0.87,-0.55,0.02,10.30,868
16:37:00.966,9190,-0.87,-0.55,0.00,10.33,869
16:37:00.982,9200,-0.87,-0.56,-0.01,10.32,870
16:37:00.986,9210,-0.87,-0.57,-0.01,10.42,871
16:37:01.002,9220,-0.87,-0.58,-0.02,10.44,872
16:37:01.005,9230,-0.88,-0.57,-0.02,10.43,873
16:37:01.016,9240,-0.88,-0.57,-0.02,10.47,874
16:37:01.025,9250,-0.89,-0.55,-0.03,10.42,875
16:37:01.036,9260,-0.89,-0.53,-0.04,10.35,876
16:37:01.081,9270,-0.90,-0.52,-0.07,10.41,877
16:37:01.085,9280,-0.91,-0.52,-0.09,10.55,878
16:37:01.086,9290,-0.92,-0.50,-0.12,10.54,879
16:37:01.088,9300,-0.94,-0.48,-0.17,10.66,880
16:37:01.089,9310,-0.95,-0.47,-0.22,10.82,881
16:37:01.122,9320,-0.99,-0.42,-0.25,11.01,882
16:37:01.122,9330,-1.01,-0.39,-0.27,11.12,883
16:37:01.125,9340,-1.03,-0.42,-0.24,11.36,884
16:37:01.127,9350,-1.05,-0.50,-0.14,11.69,885
16:37:01.163,9360,-1.01,-0.57,-0.05,11.62,886
16:37:01.163,9370,-0.94,-0.60,0.02,11.13,887
16:37:01.166,9380,-0.92,-0.59,0.12,11.00,888
16:37:01.166,9390,-1.00,-0.58,0.14,11.70,889
16:37:01.204,9400,-1.06,-0.59,0.15,12.21,890
16:37:01.208,9410,-1.08,-0.65,0.15,12.69,891
16:37:01.208,9420,-1.13,-0.61,0.17,12.96,892
16:37:01.208,9430,-1.12,-0.51,0.22,12.46,893
16:37:01.246,9440,-1.04,-0.47,0.23,11.66,894
16:37:01.249,9450,-0.92,-0.55,0.22,10.94,895
16:37:01.249,9460,-0.84,-0.64,0.21,10.72,896
16:37:01.249,9470,-0.79,-0.69,0.22,10.68,897
16:37:01.271,9480,-0.73,-0.68,0.25,10.34,898
16:37:01.275,9490,-0.71,-0.67,0.29,10.19,899
16:37:01.276,9500,-0.68,-0.69,0.31,10.19,900
16:37:01.287,9510,-0.64,-0.71,0.35,10.21,901
16:37:01.296,9520,-0.60,-0.72,0.38,10.13,902
16:37:01.306,9530,-0.54,-0.73,0.37,9.82,903
16:37:01.316,9540,-0.49,-0.71,0.37,9.39,904
16:37:01.326,9550,-0.44,-0.71,0.31,8.89,905
16:37:01.336,9560,-0.44,-0.59,0.43,8.53,906
16:37:01.348,9570,-0.48,-0.57,0.42,8.52,907
16:37:01.365,9580,-0.53,-0.55,0.36,8.46,908
16:37:01.378,9590,-0.59,-0.59,0.34,9.00,909
16:37:01.379,9600,-0.62,-0.61,0.32,9.27,910
16:37:01.413,9610,-0.65,-0.64,0.30,9.60,911
16:37:01.416,9620,-0.64,-0.64,0.29,9.48,912
16:37:01.416,9630,-0.63,-0.61,0.30,9.26,913
16:37:01.434,9640,-0.66,-0.54,0.31,9.06,914
16:37:01.437,9650,-0.72,-0.50,0.32,9.32,915
16:37:01.437,9660,-0.78,-0.47,0.26,9.44,916
16:37:01.470,9670,-0.80,-0.46,0.23,9.50,917
16:37:01.471,9680,-0.81,-0.44,0.23,9.47,918
16:37:01.476,9690,-0.82,-0.41,0.20,9.40,919
16:37:01.478,9700,-0.82,-0.43,0.18,9.47,920
16:37:01.490,9710,-0.85,-0.46,0.18,9.83,921
16:37:01.500,9720,-0.89,-0.50,0.17,10.31,922
16:37:01.508,9730,-0.93,-0.50,0.11,10.64,923
16:37:01.516,9740,-0.96,-0.47,0.05,10.72,924
16:37:01.526,9750,-0.98,-0.43,-0.01,10.68,925
16:37:01.541,9760,-1.00,-0.42,-0.04,10.89,926
16:37:01.549,9770,-1.02,-0.46,-0.09,11.25,927
16:37:01.563,9780,-1.02,-0.51,-0.11,11.49,928
16:37:01.566,9790,-1.04,-0.52,-0.11,11.70,929
16:37:01.576,9800,-1.05,-0.50,-0.07,11.65,930
16:37:01.586,9810,-1.07,-0.44,-0.06,11.54,931
16:37:01.597,9820,-1.09,-0.37,-0.09,11.59,932
16:37:01.606,9830,-1.10,-0.33,-0.09,11.52,933
16:37:01.616,9840,-1.13,-0.31,-0.11,11.75,934
16:37:01.630,9850,-1.10,-0.31,-0.14,11.48,935
16:37:01.640,9860,-1.08,-0.33,-0.17,11.38,936
16:37:01.650,9870,-1.05,-0.37,-0.18,11.30,937
16:37:01.656,9880,-1.04,-0.41,-0.20,11.33,938
16:37:01.667,9890,-0.98,-0.43,-0.16,10.84,939
16:37:01.675,9900,-0.95,-0.38,-0.16,10.34,940
16:37:01.687,9910,-0.93,-0.33,-0.17,10.00,941
16:37:01.702,9920,-0.91,-0.32,-0.16,9.79,942
16:37:01.706,9930,-0.97,-0.28,-0.16,10.21,943
16:37:01.761,9940,-0.98,-0.21,-0.20,10.25,944
16:37:01.761,9950,-1.00,-0.06,-0.11,10.09,945
16:37:01.762,9960,-1.01,-0.07,-0.23,10.37,946
16:37:01.764,9970,-0.95,-0.15,-0.31,10.12,947
16:37:01.765,9980,-0.90,-0.13,-0.40,9.97,948
16:37:01.766,9990,-0.86,-0.23,-0.35,9.58,949
16:37:01.803,10000,-0.84,-0.26,-0.30,9.31,950
16:37:01.803,10010,-0.77,-0.28,-0.31,8.70,951
16:37:01.804,10020,-0.68,-0.26,-0.30,7.87,952
16:37:01.806,10030,-0.65,-0.23,-0.25,7.39,953
16:37:01.841,10040,-0.64,-0.25,-0.17,7.08,954
16:37:01.841,10050,-0.56,-0.34,-0.13,6.66,955
16:37:01.844,10060,-0.43,-0.46,-0.08,6.33,956
16:37:01.846,10070,-0.31,-0.60,0.03,6.74,957
16:37:01.881,10080,-0.16,-0.60,0.26,6.71,958
16:37:01.882,10090,-0.55,-0.76,0.30,9.88,959
16:37:01.885,10100,-1.02,-0.98,0.02,14.17,960
16:37:01.887,10110,-1.73,-1.02,-0.14,20.18,961
16:37:01.924,10120,-2.13,-0.33,0.23,21.63,962
16:37:01.924,10130,-2.13,0.15,-0.42,21.70,963
16:37:01.924,10140,-2.13,0.71,-0.67,23.41,964
16:37:01.928,10150,-1.40,-0.06,-0.46,14.74,965
16:37:01.949,10160,-1.01,-0.33,0.47,11.64,966
16:37:01.952,10170,-0.72,-0.73,-0.05,10.25,967
16:37:01.960,10180,-0.56,-0.70,0.30,9.46,968
16:37:01.974,10190,-0.35,-0.75,0.37,9.04,969
16:37:01.977,10200,-0.28,-0.76,0.31,8.66,970
16:37:01.986,10210,-0.35,-0.80,0.25,9.07,971
16:37:02.001,10220,-0.45,-0.94,0.43,11.31,972
16:37:02.010,10230,-0.66,-1.12,0.56,14.13,973
16:37:02.017,10240,-0.89,-0.97,0.46,13.96,974
16:37:02.028,10250,-0.81,-0.77,0.14,11.27,975
16:37:02.038,10260,-0.66,-0.74,0.15,9.98,976
16:37:02.047,10270,-0.63,-0.71,0.12,9.54,977
16:37:02.059,10280,-0.63,-0.65,0.12,9.16,978
16:37:02.076,10290,-0.69,-0.63,0.15,9.44,979
16:37:02.078,10300,-0.78,-0.62,0.22,10.17,980
16:37:02.104,10310,-0.88,-0.59,0.23,10.82,981
16:37:02.104,10320,-0.95,-0.53,0.24,11.14,982
16:37:02.106,10330,-0.94,-0.48,0.23,10.84,983
16:37:02.116,10340,-0.86,-0.54,0.16,10.29,984
16:37:02.146,10350,-0.81,-0.61,0.12,10.20,985
16:37:02.146,10360,-0.80,-0.66,0.10,10.44,986
16:37:02.148,10370,-0.82,-0.64,0.09,10.48,987
16:37:02.160,10380,-0.81,-0.65,0.07,10.41,988
16:37:02.168,10390,-0.76,-0.69,0.09,10.34,989
16:37:02.178,10400,-0.72,-0.73,0.08,10.28,990
16:37:02.186,10410,-0.67,-0.75,0.03,10.08,991
16:37:02.196,10420,-0.65,-0.75,0.00,9.91,992
16:37:02.206,10430,-0.70,-0.73,0.02,10.09,993
16:37:02.216,10440,-0.77,-0.69,0.07,10.32,994
16:37:02.226,10450,-0.84,-0.62,0.11,10.54,995
16:37:02.237,10460,-0.84,-0.57,0.15,10.29,996
16:37:02.246,10470,-0.83,-0.55,0.15,10.08,997
16:37:02.256,10480,-0.78,-0.53,0.12,9.52,998
16:37:02.267,10490,-0.79,-0.54,0.18,9.74,999
16:37:02.281,10500,-0.80,-0.57,0.16,9.97,1000
16:37:02.287,10510,-0.77,-0.62,0.14,9.99,1001
16:37:02.302,10520,-0.76,-0.66,0.12,10.14,1002
16:37:02.306,10530,-0.76,-0.66,0.08,10.11,1003
16:37:02.325,10540,-0.78,-0.64,0.06,10.14,1004
16:37:02.325,10550,-0.80,-0.63,0.07,10.27,1005
16:37:02.336,10560,-0.82,-0.61,0.11,10.34,1006
16:37:02.346,10570,-0.83,-0.57,0.14,10.20,1007
16:37:02.356,10580,-0.87,-0.52,0.10,10.17,1008
16:37:02.366,10590,-0.79,-0.56,0.12,9.81,1009
16:37:02.376,10600,-0.80,-0.63,0.15,10.26,1010
16:37:02.386,10610,-0.81,-0.68,0.12,10.58,1011
16:37:02.403,10620,-0.85,-0.65,0.09,10.80,1012
16:37:02.406,10630,-0.90,-0.59,0.09,10.81,1013
16:37:02.419,10640,-0.92,-0.54,0.10,10.72,1014
16:37:02.428,10650,-0.89,-0.52,0.05,10.33,1015
16:37:02.438,10660,-0.83,-0.58,-0.01,10.14,1016
16:37:02.450,10670,-0.82,-0.62,-0.09,10.31,1017
16:37:02.457,10680,-0.80,-0.59,-0.14,10.03,1018
16:37:02.466,10690,-0.91,-0.57,-0.27,11.06,1019
16:37:02.480,10700,-0.92,-0.61,-0.30,11.47,1020
16:37:02.491,10710,-0.93,-0.58,-0.20,11.14,1021
16:37:02.496,10720,-0.96,-0.56,-0.08,11.13,1022
16:37:02.507,10730,-1.04,-0.54,-0.15,11.83,1023
16:37:02.558,10740,-1.10,-0.47,-0.12,12.01,1024
16:37:02.559,10750,-1.21,-0.38,0.05,12.65,1025
16:37:02.561,10760,-1.22,-0.38,0.04,12.82,1026
16:37:02.562,10770,-1.20,-0.43,0.06,12.76,1027
16:37:02.562,10780,-1.24,-0.48,-0.01,13.29,1028
16:37:02.598,10790,-1.26,-0.48,0.02,13.45,1029
16:37:02.598,10800,-1.31,-0.52,0.04,14.08,1030
16:37:02.598,10810,-1.40,-0.46,0.12,14.81,1031
16:37:02.600,10820,-1.49,-0.37,0.21,15.50,1032
16:37:02.638,10830,-1.71,-0.42,0.10,17.62,1033
16:37:02.640,10840,-1.99,-0.39,-0.13,20.30,1034
16:37:02.640,10850,-1.77,-0.60,-0.43,19.21,1035
16:37:02.642,10860,-1.27,-0.88,-0.20,15.55,1036
16:37:02.739,10870,-0.93,-1.20,0.06,15.17,1037
16:37:02.739,10880,-0.74,-1.29,0.26,15.15,1038
16:37:02.740,10890,-0.60,-1.27,0.42,14.71,1039
16:37:02.765,10900,-0.55,-1.12,0.57,13.76,1040
16:37:02.768,10910,-0.53,-1.00,1.15,16.12,1041
16:37:02.768,10920,-0.35,-1.01,1.28,16.69,1042
16:37:02.782,10930,-0.50,-0.97,1.33,17.20,1043
16:37:02.783,10940,-0.33,-0.71,1.16,13.99,1044
16:37:02.789,10950,-0.19,-0.45,0.99,11.03,1045
16:37:02.789,10960,-0.19,-0.35,0.60,7.21,1046
16:37:02.789,10970,-0.34,-0.50,0.65,8.92,1047
16:37:02.789,10980,-0.44,-0.64,0.68,10.36,1048
16:37:02.789,10990,-0.46,-0.79,0.62,11.04,1049
16:37:02.796,11000,-0.26,-0.81,0.62,10.56,1050
16:37:02.796,11010,-0.09,-0.75,0.60,9.65,1051
16:37:02.807,11020,0.00,-0.68,0.55,8.75,1052
16:37:02.809,11030,-0.07,-0.54,0.60,8.10,1053
16:37:02.822,11040,-0.20,-0.39,0.61,7.50,1054
16:37:02.826,11050,-0.23,-0.36,0.64,7.67,1055
16:37:02.844,11060,-0.25,-0.32,0.71,8.19,1056
16:37:02.847,11070,-0.23,-0.35,0.69,8.08,1057
16:37:02.857,11080,-0.14,-0.43,0.61,7.59,1058
16:37:02.867,11090,0.06,-0.54,0.50,7.36,1059
16:37:02.879,11100,0.11,-0.61,0.43,7.56,1060
16:37:02.885,11110,-0.07,-0.58,0.42,7.17,1061
16:37:02.901,11120,-0.26,-0.52,0.41,7.09,1062
16:37:02.907,11130,-0.37,-0.44,0.36,6.76,1063
16:37:02.916,11140,-0.46,-0.41,0.49,7.89,1064
16:37:02.928,11150,-0.56,-0.36,0.56,8.75,1065
16:37:02.940,11160,-0.65,-0.33,0.68,9.98,1066
16:37:02.954,11170,-0.82,-0.30,0.60,10.58,1067
16:37:02.956,11180,-0.78,-0.42,0.39,9.72,1068
16:37:02.967,11190,-0.62,-0.49,0.28,8.38,1069
16:37:02.976,11200,-0.60,-0.52,0.13,8.08,1070
16:37:02.985,11210,-0.60,-0.57,0.19,8.45,1071
16:37:03.001,11220,-0.64,-0.58,0.13,8.71,1072
16:37:03.005,11230,-0.65,-0.46,0.07,7.97,1073
16:37:03.021,11240,-0.69,-0.33,-0.08,7.73,1074
16:37:03.025,11250,-0.81,-0.16,-0.37,9.04,1075
16:37:03.037,11260,-0.85,0.12,-0.89,12.37,1076
16:37:03.047,11270,-0.97,0.34,-1.14,15.33,1077
16:37:03.081,11280,-0.84,0.31,-1.08,14.05,1078
16:37:03.093,11290,-0.68,-0.06,-0.75,10.14,1079
16:37:03.094,11300,-0.47,-0.42,-0.44,7.72,1080
16:37:03.095,11310,-0.29,-0.66,-0.16,7.41,1081
16:37:03.096,11320,-0.14,-0.78,-0.04,7.95,1082
16:37:03.108,11330,-0.06,-0.71,0.12,7.19,1083
16:37:03.117,11340,-0.14,-0.56,0.36,6.81,1084
16:37:03.126,11350,-0.94,-0.65,0.33,11.86,1085
16:37:03.142,11360,-1.66,-0.72,0.43,18.55,1086
16:37:03.181,11370,-2.13,-0.79,0.25,22.81,1087
16:37:03.182,11380,-2.13,-0.36,0.30,21.77,1088
16:37:03.183,11390,-2.10,0.42,-0.50,21.98,1089
16:37:03.185,11400,-1.74,0.64,-0.82,20.23,1090
16:37:03.186,11410,-1.25,-0.75,-0.77,16.46,1091
16:37:03.199,11420,-0.73,-0.84,0.46,12.01,1092
16:37:03.238,11430,-0.67,-0.82,-0.02,10.55,1093
16:37:03.239,11440,-0.50,-0.72,0.10,8.84,1094
16:37:03.241,11450,-0.30,-0.78,0.71,10.97,1095
16:37:03.242,11460,-0.22,-1.00,0.68,12.27,1096
16:37:03.475,11470,0.12,-0.79,0.69,10.60,1097
16:37:03.491,11480,-0.41,-0.60,0.69,10.00,1098
16:37:03.495,11490,-0.73,-0.49,0.46,9.91,1099
16:37:03.496,11500,-1.04,-0.58,0.58,13.23,1100
16:37:03.497,11510,-0.92,-0.74,0.46,12.68,1101
16:37:03.499,11520,-0.68,-0.92,0.26,11.77,1102
16:37:03.505,11530,-0.53,-0.99,0.15,11.37,1103
16:37:03.505,11540,-0.41,-1.01,0.13,11.03,1104
16:37:03.505,11550,-0.39,-1.11,0.23,12.01,1105
16:37:03.505,11560,-0.37,-1.14,0.23,12.24,1106
16:37:03.505,11570,-0.39,-1.06,0.26,11.57,1107
16:37:03.505,11580,-0.52,-0.89,0.32,10.80,1108
16:37:03.505,11590,-0.69,-0.75,0.36,10.86,1109
16:37:03.505,11600,-0.87,-0.59,0.36,11.09,1110
16:37:03.505,11610,-0.98,-0.47,0.38,11.54,1111
16:37:03.505,11620,-0.97,-0.40,0.43,11.34,1112
16:37:03.506,11630,-0.85,-0.46,0.38,10.38,1113
16:37:03.506,11640,-0.74,-0.58,0.28,9.78,1114
16:37:03.506,11650,-0.69,-0.71,0.24,10.13,1115
16:37:03.506,11660,-0.61,-0.82,0.19,10.43,1116
16:37:03.506,11670,-0.57,-0.87,0.17,10.52,1117
16:37:03.506,11680,-0.61,-0.82,0.13,10.34,1118
16:37:03.506,11690,-0.68,-0.71,0.12,9.96,1119
16:37:03.506,11700,-0.76,-0.60,0.12,9.77,1120
16:37:03.506,11710,-0.85,-0.53,0.17,10.16,1121
16:37:03.506,11720,-0.93,-0.48,0.19,10.64,1122
16:37:03.540,11730,-0.91,-0.50,0.12,10.45,1123
16:37:03.541,11740,-0.87,-0.56,0.02,10.33,1124
16:37:03.542,11750,-0.85,-0.64,-0.00,10.60,1125
16:37:03.543,11760,-0.83,-0.67,0.01,10.66,1126
16:37:03.548,11770,-0.81,-0.64,0.05,10.35,1127
16:37:03.558,11780,-0.81,-0.59,0.08,10.01,1128
16:37:03.596,11790,-0.80,-0.55,0.17,9.86,1129
16:37:03.599,11800,-0.79,-0.60,0.15,10.05,1130
16:37:03.599,11810,-0.78,-0.63,0.13,10.08,1131
16:37:03.599,11820,-0.80,-0.63,0.07,10.22,1132
16:37:03.606,11830,-0.85,-0.61,0.04,10.41,1133
16:37:03.617,11840,-0.88,-0.59,-0.01,10.60,1134
16:37:03.658,11850,-0.92,-0.59,-0.07,10.92,1135
16:37:03.658,11860,-0.94,-0.55,-0.10,10.92,1136
16:37:03.659,11870,-0.93,-0.49,-0.13,10.64,1137
16:37:03.662,11880,-0.92,-0.50,-0.18,10.65,1138
16:37:03.666,11890,-0.94,-0.51,-0.17,10.81,1139
16:37:03.683,11900,-0.95,-0.49,-0.10,10.73,1140
16:37:03.717,11910,-0.97,-0.56,-0.04,11.25,1141
16:37:03.725,11920,-0.95,-0.57,0.02,11.02,1142
16:37:03.726,11930,-0.84,-0.59,-0.01,10.30,1143
16:37:03.727,11940,-0.81,-0.64,-0.02,10.32,1144
16:37:03.729,11950,-0.85,-0.67,-0.01,10.83,1145
16:37:03.736,11960,-0.91,-0.64,0.05,11.13,1146
16:37:03.781,11970,-1.01,-0.60,0.07,11.80,1147
16:37:03.781,11980,-1.17,-0.50,0.12,12.79,1148
16:37:03.782,11990,-1.27,-0.44,0.10,13.51,1149
16:37:03.784,12000,-1.31,-0.37,0.07,13.60,1150
16:37:03.786,12010,-1.41,-0.31,0.02,14.42,1151
16:37:03.797,12020,-1.44,-0.38,-0.05,14.89,1152
16:37:03.807,12030,-1.51,-0.49,-0.12,15.88,1153
16:37:03.815,12040,-1.63,-0.61,-0.23,17.54,1154
16:37:03.826,12050,-1.60,-0.71,-0.31,17.71,1155
16:37:03.836,12060,-1.35,-0.85,-0.21,16.13,1156
16:37:03.852,12070,-1.08,-0.96,-0.14,14.50,1157
16:37:03.856,12080,-0.83,-1.07,0.00,13.55,1158
16:37:03.870,12090,-0.74,-1.12,0.16,13.54,1159
16:37:03.876,12100,-0.74,-1.15,0.43,14.36,1160
16:37:03.886,12110,-0.79,-1.12,0.62,15.00,1161
16:37:03.896,12120,-0.72,-1.04,0.83,15.21,1162
16:37:03.936,12130,-0.58,-0.93,0.98,14.66,1163
16:37:03.937,12140,-0.27,-0.94,1.22,15.65,1164
16:37:03.939,12150,-0.21,-0.92,1.31,16.19,1165
16:37:03.940,12160,-0.22,-0.70,1.03,12.65,1166
16:37:03.978,12170,-0.35,-0.42,0.77,9.45,1167
16:37:03.979,12180,-0.46,-0.36,0.65,8.72,1168
16:37:03.980,12190,-0.45,-0.56,0.79,10.69,1169
16:37:03.982,12200,-0.40,-0.70,0.78,11.23,1170
16:37:04.019,12210,-0.24,-0.79,0.69,10.76,1171
16:37:04.020,12220,-0.05,-0.73,0.66,9.90,1172
16:37:04.021,12230,0.13,-0.68,0.57,8.98,1173
16:37:04.024,12240,0.18,-0.62,0.59,8.78,1174
16:37:04.025,12250,-0.05,-0.52,0.63,8.12,1175
16:37:04.063,12260,-0.16,-0.46,0.61,7.83,1176
16:37:04.066,12270,-0.28,-0.38,0.77,9.00,1177
16:37:04.066,12280,-0.36,-0.32,0.81,9.38,1178
16:37:04.153,12290,-0.26,-0.31,0.75,8.55,1179
16:37:04.154,12300,-0.10,-0.38,0.69,7.96,1180
16:37:04.183,12310,0.01,-0.45,0.65,7.92,1181
16:37:04.184,12320,-0.05,-0.45,0.59,7.38,1182
16:37:04.186,12330,-0.21,-0.42,0.59,7.55,1183
16:37:04.204,12340,-0.30,-0.41,0.74,8.94,1184
16:37:04.207,12350,-0.33,-0.42,0.77,9.38,1185
16:37:04.207,12360,-0.34,-0.41,0.65,8.36,1186
16:37:04.207,12370,-0.34,-0.29,0.38,5.88,1187
16:37:04.207,12380,-0.34,-0.30,0.25,5.25,1188
16:37:04.207,12390,-0.44,-0.55,0.37,7.92,1189
16:37:04.208,12400,-0.51,-0.69,0.42,9.61,1190
16:37:04.209,12410,-0.53,-0.76,0.37,9.93,1191
16:37:04.210,12420,-0.54,-0.79,0.33,10.18,1192
16:37:04.212,12430,-0.51,-0.74,0.27,9.36,1193
16:37:04.216,12440,-0.49,-0.61,0.27,8.27,1194
16:37:04.232,12450,-0.56,-0.42,0.31,7.64,1195
16:37:04.236,12460,-0.62,-0.22,0.33,7.36,1196
16:37:04.249,12470,-0.77,-0.08,0.11,7.87,1197
16:37:04.259,12480,-0.89,0.09,-0.18,9.07,1198
16:37:04.267,12490,-0.97,0.16,-0.43,10.71,1199
16:37:04.277,12500,-0.96,0.07,-0.59,11.30,1200
16:37:04.295,12510,-0.90,0.08,-0.62,10.93,1201
16:37:04.295,12520,-0.79,-0.07,-0.49,9.27,1202
16:37:04.311,12530,-0.57,-0.29,-0.40,7.54,1203
16:37:04.316,12540,-0.39,-0.49,-0.29,6.92,1204
16:37:04.325,12550,-0.45,-0.75,-0.12,8.81,1205
16:37:04.341,12560,-0.59,-0.88,0.03,10.59,1206
16:37:04.347,12570,-0.73,-0.84,0.06,11.13,1207
16:37:04.361,12580,-1.43,-0.69,0.11,15.89,1208
16:37:04.366,12590,-2.13,-0.50,0.38,22.16,1209
16:37:04.377,12600,-2.13,-0.27,0.47,21.94,1210
16:37:04.391,12610,-1.88,0.37,0.01,19.13,1211
16:37:04.397,12620,-1.20,0.36,-0.20,12.69,1212
16:37:04.406,12630,-0.78,-0.65,-0.35,10.74,1213
16:37:04.417,12640,-0.63,-0.70,0.38,10.16,1214
16:37:04.433,12650,-0.57,-0.83,0.34,10.64,1215
16:37:04.434,12660,-0.52,-0.91,0.31,10.89,1216
16:37:04.448,12670,-0.25,-0.95,0.56,11.34,1217
16:37:04.460,12680,-0.21,-0.99,0.54,11.51,1218
16:37:04.469,12690,-0.45,-0.78,0.57,10.61,1219
16:37:04.480,12700,-0.74,-0.54,0.49,10.38,1220
16:37:04.486,12710,-0.97,-0.54,0.41,11.85,1221
16:37:04.502,12720,-0.95,-0.66,0.36,12.13,1222
16:37:04.514,12730,-0.80,-0.89,0.25,12.24,1223
16:37:04.515,12740,-0.65,-0.95,0.13,11.61,1224
16:37:04.530,12750,-0.53,-0.98,0.08,11.16,1225
16:37:04.536,12760,-0.45,-1.02,0.05,11.21,1226
16:37:04.551,12770,-0.45,-1.01,-0.00,11.03,1227
16:37:04.555,12780,-0.49,-0.90,0.07,10.30,1228
16:37:04.572,12790,-0.59,-0.87,0.15,10.63,1229
16:37:04.576,12800,-0.69,-0.83,0.15,10.89,1230
16:37:04.589,12810,-0.78,-0.77,0.16,11.10,1231
16:37:04.595,12820,-0.88,-0.66,0.19,11.12,1232
16:37:04.606,12830,-0.91,-0.52,0.21,10.71,1233
16:37:04.617,12840,-0.93,-0.44,0.24,10.54,1234
16:37:04.632,12850,-0.91,-0.40,0.23,10.25,1235
16:37:04.636,12860,-0.88,-0.44,0.14,9.88,1236
16:37:04.662,12870,-0.82,-0.53,0.07,9.83,1237
16:37:04.663,12880,-0.77,-0.64,0.07,10.00,1238
16:37:04.665,12890,-0.71,-0.74,0.08,10.33,1239
16:37:04.703,12900,-0.70,-0.74,0.08,10.18,1240
16:37:04.704,12910,-0.74,-0.65,0.10,9.91,1241
16:37:04.705,12920,-0.83,-0.54,0.13,10.03,1242
16:37:04.706,12930,-0.90,-0.45,0.14,10.18,1243
16:37:04.748,12940,-0.94,-0.43,0.19,10.53,1244
16:37:04.749,12950,-0.92,-0.47,0.21,10.50,1245
16:37:04.750,12960,-0.85,-0.55,0.15,10.20,1246
16:37:04.788,12970,-0.78,-0.62,0.10,10.01,1247
16:37:04.789,12980,-0.72,-0.68,0.06,9.96,1248
16:37:04.791,12990,-0.71,-0.71,0.04,10.01,1249
16:37:04.795,13000,-0.73,-0.69,0.03,10.05,1250
16:37:04.829,13010,-0.78,-0.65,0.06,10.18,1251
16:37:04.829,13020,-0.84,-0.58,0.12,10.32,1252
16:37:04.833,13030,-0.87,-0.55,0.13,10.41,1253
16:37:04.833,13040,-0.86,-0.55,0.14,10.25,1254
16:37:04.833,13050,-0.88,-0.53,0.08,10.26,1255
16:37:04.869,13060,-0.86,-0.59,-0.01,10.44,1256
16:37:04.871,13070,-0.90,-0.53,-0.05,10.47,1257
16:37:04.871,13080,-0.91,-0.50,-0.09,10.41,1258
16:37:04.873,13090,-0.89,-0.54,-0.09,10.44,1259
16:37:04.902,13100,-0.86,-0.58,-0.08,10.44,1260
16:37:04.903,13110,-0.87,-0.58,-0.05,10.43,1261
16:37:04.905,13120,-0.88,-0.56,0.00,10.42,1262
16:37:04.905,13130,-0.93,-0.53,0.05,10.68,1263
16:37:04.919,13140,-0.94,-0.47,0.05,10.48,1264
16:37:04.929,13150,-0.85,-0.50,0.05,9.91,1265
16:37:04.937,13160,-0.77,-0.60,0.00,9.80,1266
16:37:04.948,13170,-0.86,-0.64,0.02,10.71,1267
16:37:04.958,13180,-0.96,-0.67,0.10,11.70,1268
16:37:04.967,13190,-1.03,-0.65,0.15,12.24,1269
16:37:04.980,13200,-1.08,-0.56,0.14,12.29,1270
16:37:04.989,13210,-1.15,-0.46,0.13,12.43,1271
16:37:05.000,13220,-1.25,-0.40,0.11,13.17,1272
16:37:05.009,13230,-1.32,-0.38,0.11,13.82,1273
16:37:05.015,13240,-1.48,-0.38,0.11,15.32,1274
16:37:05.029,13250,-1.61,-0.38,-0.14,16.61,1275
16:37:05.036,13260,-1.74,-0.45,-0.39,18.38,1276
16:37:05.046,13270,-1.69,-0.47,-0.32,17.83,1277
16:37:05.057,13280,-1.42,-0.68,-0.19,15.89,1278
16:37:05.067,13290,-1.17,-0.92,-0.09,14.92,1279
16:37:05.076,13300,-0.89,-1.15,0.17,14.66,1280
16:37:05.101,13310,-0.73,-1.32,0.31,15.43,1281
16:37:05.127,13320,-0.61,-1.38,0.42,15.66,1282
16:37:05.128,13330,-0.54,-1.36,0.46,15.34,1283
16:37:05.129,13340,-0.48,-1.19,0.69,14.59,1284
16:37:05.130,13350,-0.56,-1.04,0.86,14.60,1285
16:37:05.146,13360,-0.50,-1.02,0.94,14.74,1286
16:37:05.147,13370,-0.20,-1.01,1.38,17.28,1287
16:37:05.161,13380,0.02,-0.92,1.48,17.44,1288
16:37:05.165,13390,-0.13,-0.53,1.16,12.85,1289
16:37:05.177,13400,-0.27,-0.23,0.82,8.98,1290
16:37:05.186,13410,-0.32,-0.13,0.73,8.06,1291
16:37:05.197,13420,-0.43,-0.32,0.79,9.56,1292
16:37:05.205,13430,-0.37,-0.56,0.70,9.69,1293
16:37:05.216,13440,-0.28,-0.73,0.59,9.80,1294
16:37:05.226,13450,-0.12,-0.84,0.65,10.65,1295
16:37:05.236,13460,0.08,-0.75,0.64,9.83,1296
16:37:05.250,13470,0.23,-0.67,0.57,9.09,1297
16:37:05.255,13480,0.22,-0.56,0.59,8.41,1298
16:37:05.267,13490,-0.02,-0.37,0.61,7.12,1299
16:37:05.278,13500,-0.17,-0.33,0.60,7.08,1300
16:37:05.286,13510,-0.32,-0.26,0.64,7.57,1301
16:37:05.296,13520,-0.38,-0.18,0.74,8.50,1302
16:37:05.313,13530,-0.18,-0.21,0.84,8.89,1303
16:37:05.316,13540,-0.07,-0.39,0.75,8.49,1304
16:37:05.326,13550,-0.04,-0.52,0.56,7.68,1305
16:37:05.337,13560,-0.14,-0.42,0.53,6.93,1306
16:37:05.347,13570,-0.28,-0.37,0.57,7.35,1307
16:37:05.357,13580,-0.37,-0.35,0.65,8.25,1308
16:37:05.367,13590,-0.38,-0.36,0.62,8.08,1309
16:37:05.382,13600,-0.36,-0.38,0.57,7.73,1310
16:37:05.386,13610,-0.35,-0.38,0.43,6.67,1311
16:37:05.436,13620,-0.37,-0.50,0.46,7.73,1312
16:37:05.493,13630,-0.38,-0.70,0.53,9.54,1313
16:37:05.532,13640,-0.47,-0.79,0.53,10.65,1314
16:37:05.533,13650,-0.53,-0.84,0.57,11.43,1315
16:37:05.533,13660,-0.62,-0.80,0.46,11.11,1316
16:37:05.571,13670,-0.59,-0.70,0.44,10.13,1317
16:37:05.571,13680,-0.64,-0.55,0.26,8.85,1318
16:37:05.572,13690,-0.86,-0.40,0.25,9.80,1319
16:37:05.574,13700,-0.95,-0.19,0.18,9.89,1320
16:37:05.615,13710,-0.98,0.07,0.06,9.80,1321
16:37:05.615,13720,-1.01,0.21,-0.31,10.77,1322
16:37:05.615,13730,-1.04,0.29,-0.86,13.77,1323
16:37:05.615,13740,-0.95,0.24,-1.35,16.69,1324
16:37:05.615,13750,-0.70,0.09,-1.50,16.61,1325
16:37:05.615,13760,-0.59,-0.15,-0.96,11.35,1326
16:37:05.615,13770,-0.52,-0.43,-0.47,8.25,1327
16:37:05.615,13780,-0.45,-0.80,-0.18,9.34,1328
16:37:05.615,13790,-0.28,-0.73,-0.04,7.86,1329
16:37:05.629,13800,-0.17,-0.88,0.11,9.05,1330
16:37:05.630,13810,-0.22,-0.78,0.23,8.42,1331
16:37:05.632,13820,-0.48,-0.66,0.37,9.02,1332
16:37:05.633,13830,-1.10,-0.76,0.50,14.25,1333
16:37:05.634,13840,-1.52,-0.72,0.48,17.55,1334
16:37:05.635,13850,-1.95,-0.64,0.27,20.72,1335
16:37:05.638,13860,-2.04,-0.18,0.12,20.49,1336
16:37:05.646,13870,-1.89,0.18,-0.14,19.04,1337
16:37:05.655,13880,-1.67,0.41,-0.20,17.29,1338
16:37:05.669,13890,-1.44,0.13,-0.05,14.44,1339
16:37:05.675,13900,-0.97,-0.35,0.23,10.55,1340
16:37:05.689,13910,-0.70,-0.65,0.04,9.58,1341
16:37:05.697,13920,-0.64,-0.70,0.14,9.62,1342
16:37:05.706,13930,-0.41,-0.85,0.51,10.68,1343
16:37:05.716,13940,-0.36,-1.06,0.48,12.17,1344
16:37:05.726,13950,-0.12,-1.12,0.40,11.98,1345
16:37:05.736,13960,-0.08,-0.93,0.28,9.75,1346
16:37:05.746,13970,-0.48,-0.65,0.32,8.73,1347
16:37:05.763,13980,-1.00,-0.63,0.35,12.32,1348
16:37:05.764,13990,-1.19,-0.64,0.40,14.12,1349
16:37:05.779,14000,-0.97,-0.68,0.25,12.11,1350
16:37:05.789,14010,-0.66,-0.78,0.23,10.45,1351
16:37:05.798,14020,-0.53,-0.84,0.15,10.11,1352
16:37:05.808,14030,-0.57,-0.82,0.22,10.24,1353
16:37:05.819,14040,-0.59,-0.81,0.24,10.33,1354
16:37:05.827,14050,-0.61,-0.83,0.24,10.59,1355
16:37:05.838,14060,-0.61,-0.86,0.29,10.93,1356
16:37:05.849,14070,-0.62,-0.86,0.28,11.01,1357
16:37:05.859,14080,-0.65,-0.82,0.27,10.85,1358
16:37:05.871,14090,-0.72,-0.75,0.23,10.67,1359
16:37:05.875,14100,-0.79,-0.65,0.22,10.44,1360
16:37:05.889,14110,-0.90,-0.54,0.30,10.85,1361
16:37:05.898,14120,-0.96,-0.45,0.34,11.10,1362
16:37:05.908,14130,-0.89,-0.46,0.28,10.40,1363
16:37:05.917,14140,-0.79,-0.57,0.22,9.98,1364
16:37:05.945,14150,-0.70,-0.71,0.18,10.11,1365
16:37:05.945,14160,-0.63,-0.81,0.13,10.37,1366
16:37:05.945,14170,-0.63,-0.81,0.06,10.25,1367
16:37:05.961,14180,-0.69,-0.74,0.03,10.12,1368
16:37:05.966,14190,-0.76,-0.66,0.10,10.08,1369
16:37:05.983,14200,-0.83,-0.57,0.15,10.17,1370
16:37:05.984,14210,-0.88,-0.52,0.19,10.37,1371
16:37:05.999,14220,-0.84,-0.55,0.20,10.25,1372
16:37:06.008,14230,-0.78,-0.60,0.18,9.98,1373
16:37:06.021,14240,-0.73,-0.65,0.14,9.91,1374
16:37:06.025,14250,-0.70,-0.70,0.13,9.98,1375
16:37:06.042,14260,-0.68,-0.71,0.11,9.86,1376
16:37:06.046,14270,-0.72,-0.68,0.08,9.94,1377
16:37:06.059,14280,-0.76,-0.64,0.07,9.95,1378
16:37:06.069,14290,-0.78,-0.63,0.06,10.02,1379
16:37:06.076,14300,-0.85,-0.60,0.01,10.38,1380
16:37:06.085,14310,-0.90,-0.60,-0.01,10.83,1381
16:37:06.095,14320,-0.93,-0.57,-0.04,10.90,1382
16:37:06.111,14330,-0.95,-0.53,-0.09,10.87,1383
16:37:06.117,14340,-0.96,-0.51,-0.14,10.94,1384
16:37:06.159,14350,-0.97,-0.52,-0.15,11.12,1385
16:37:06.159,14360,-0.94,-0.57,-0.12,11.03,1386
16:37:06.160,14370,-0.93,-0.54,-0.17,10.87,1387
16:37:06.161,14380,-0.90,-0.54,-0.15,10.65,1388
16:37:06.200,14390,-0.95,-0.57,-0.12,11.13,1389
16:37:06.202,14400,-0.98,-0.56,-0.10,11.33,1390
16:37:06.202,14410,-0.98,-0.50,-0.09,11.09,1391
16:37:06.202,14420,-0.95,-0.51,-0.09,10.87,1392
16:37:06.205,14430,-0.92,-0.50,-0.10,10.55,1393
16:37:06.242,14440,-0.96,-0.52,-0.08,10.90,1394
16:37:06.243,14450,-1.04,-0.54,-0.03,11.76,1395
16:37:06.243,14460,-1.19,-0.58,-0.00,13.20,1396
16:37:06.246,14470,-1.35,-0.55,0.01,14.57,1397
16:37:06.282,14480,-1.51,-0.49,0.01,15.85,1398
16:37:06.283,14490,-1.67,-0.36,-0.00,17.10,1399
16:37:06.284,14500,-1.96,-0.31,-0.23,19.99,1400
16:37:06.286,14510,-1.99,-0.41,-0.52,20.97,1401
16:37:06.324,14520,-1.52,-0.58,-0.18,16.36,1402
16:37:06.325,14530,-1.26,-0.84,-0.07,15.15,1403
16:37:06.326,14540,-0.98,-1.01,0.04,14.06,1404
16:37:06.329,14550,-0.77,-1.22,0.17,14.47,1405
16:37:06.350,14560,-0.65,-1.29,0.57,15.53,1406
16:37:06.350,14570,-0.59,-1.43,0.51,16.32,1407
16:37:06.356,14580,-0.58,-1.32,0.78,16.45,1408
16:37:06.369,14590,-0.64,-1.16,0.91,16.04,1409
16:37:06.377,14600,-0.54,-1.11,1.13,16.74,1410
16:37:06.389,14610,-0.46,-1.04,1.20,16.56,1411
16:37:06.400,14620,-0.12,-0.92,1.40,16.76,1412
16:37:06.410,14630,0.08,-0.76,1.23,14.44,1413
16:37:06.418,14640,-0.03,-0.47,0.90,10.17,1414
16:37:06.428,14650,-0.19,-0.35,0.59,7.11,1415
16:37:06.443,14660,-0.27,-0.61,0.69,9.61,1416
16:37:06.446,14670,-0.33,-0.83,0.70,11.29,1417
16:37:06.462,14680,-0.36,-1.02,0.60,12.34,1418
16:37:06.468,14690,-0.14,-1.00,0.62,11.83,1419
16:37:06.477,14700,0.07,-0.85,0.57,10.30,1420
16:37:06.485,14710,0.20,-0.73,0.51,9.09,1421
16:37:06.496,14720,0.20,-0.62,0.56,8.62,1422
16:37:06.510,14730,0.09,-0.45,0.65,7.94,1423
16:37:06.517,14740,0.04,-0.40,0.73,8.35,1424
16:37:06.528,14750,-0.05,-0.27,0.78,8.23,1425
16:37:06.535,14760,-0.18,-0.19,0.81,8.54,1426
16:37:06.574,14770,-0.21,-0.13,0.83,8.70,1427
16:37:06.576,14780,-0.12,-0.06,0.78,7.87,1428
16:37:06.583,14790,-0.07,-0.10,0.73,7.36,1429
16:37:06.586,14800,-0.02,-0.21,0.63,6.64,1430
16:37:06.593,14810,-0.11,-0.32,0.47,5.77,1431
16:37:06.597,14820,-0.23,-0.35,0.44,6.10,1432
16:37:06.607,14830,-0.31,-0.42,0.59,7.84,1433
16:37:06.616,14840,-0.40,-0.49,0.67,9.21,1434
16:37:06.627,14850,-0.35,-0.53,0.62,8.85,1435
16:37:06.638,14860,-0.30,-0.62,0.48,8.40,1436
16:37:06.655,14870,-0.36,-0.78,0.30,9.04,1437
16:37:06.655,14880,-0.44,-0.87,0.28,10.13,1438
16:37:06.667,14890,-0.64,-0.78,0.25,10.40,1439
16:37:06.685,14900,-0.74,-0.56,0.24,9.60,1440
16:37:06.685,14910,-0.80,-0.43,0.31,9.62,1441
16:37:06.697,14920,-0.77,-0.40,0.37,9.44,1442
16:37:06.707,14930,-0.68,-0.39,0.43,8.95,1443
16:37:06.721,14940,-0.60,-0.32,0.14,6.90,1444
16:37:06.725,14950,-0.75,-0.01,-0.64,9.83,1445
16:37:06.740,14960,-0.82,0.35,-1.19,14.84,1446
16:37:06.746,14970,-0.76,0.39,-1.26,15.22,1447
16:37:06.757,14980,-0.66,0.11,-0.92,11.38,1448
16:37:06.773,14990,-0.60,-0.26,-0.56,8.57,1449
16:37:06.774,15000,-0.38,-0.59,-0.30,7.63,1450
16:37:06.788,15010,-0.15,-0.64,0.09,6.60,1451
16:37:06.797,15020,-0.17,-0.80,0.10,8.24,1452
16:37:06.806,15030,-0.65,-0.97,0.12,11.71,1453
16:37:06.817,15040,-1.24,-1.03,0.18,16.19,1454
16:37:06.830,15050,-1.96,-0.88,0.29,21.69,1455
16:37:06.836,15060,-2.13,-0.53,0.41,22.28,1456
16:37:06.882,15070,-2.13,0.02,0.32,21.50,1457
16:37:06.882,15080,-1.93,0.68,-0.22,20.62,1458
16:37:06.883,15090,-1.28,0.28,-0.14,13.14,1459
16:37:06.886,15100,-0.73,-0.42,-0.36,9.15,1460
16:37:06.898,15110,-0.47,-0.61,0.25,8.08,1461
16:37:06.903,15120,-0.43,-0.97,0.56,11.99,1462
16:37:06.941,15130,-0.12,-1.08,0.75,13.19,1463
16:37:07.058,15140,-0.08,-1.12,0.66,13.03,1464
16:37:07.058,15150,-0.23,-0.71,0.62,9.71,1465
16:37:07.059,15160,-0.44,-0.46,0.59,8.70,1466
16:37:07.062,15170,-0.86,-0.46,0.55,11.14,1467
16:37:07.062,15180,-1.07,-0.64,0.52,13.53,1468
16:37:07.097,15190,-0.90,-0.94,0.36,13.53,1469
16:37:07.098,15200,-0.67,-1.10,0.18,13.01,1470
16:37:07.098,15210,-0.50,-1.10,0.01,12.05,1471
16:37:07.100,15220,-0.42,-1.05,-0.06,11.27,1472
16:37:07.105,15230,-0.47,-0.92,0.03,10.34,1473
16:37:07.105,15240,-0.52,-0.89,0.15,10.44,1474
16:37:07.105,15250,-0.55,-0.81,0.23,10.05,1475
16:37:07.105,15260,-0.60,-0.78,0.24,10.12,1476
16:37:07.105,15270,-0.72,-0.80,0.23,10.98,1477
16:37:07.105,15280,-0.83,-0.78,0.27,11.67,1478
16:37:07.105,15290,-0.87,-0.67,0.30,11.41,1479
16:37:07.105,15300,-0.89,-0.56,0.29,10.88,1480
16:37:07.105,15310,-0.85,-0.52,0.24,10.26,1481
16:37:07.105,15320,-0.81,-0.55,0.20,9.96,1482
16:37:07.125,15330,-0.80,-0.59,0.14,9.99,1483
16:37:07.126,15340,-0.75,-0.68,0.11,10.16,1484
16:37:07.128,15350,-0.70,-0.76,0.05,10.32,1485
16:37:07.138,15360,-0.64,-0.81,0.01,10.33,1486
16:37:07.146,15370,-0.63,-0.79,0.03,10.16,1487
16:37:07.161,15380,-0.71,-0.68,0.10,9.91,1488
16:37:07.166,15390,-0.81,-0.56,0.14,9.98,1489
16:37:07.179,15400,-0.91,-0.48,0.14,10.41,1490
16:37:07.188,15410,-0.95,-0.44,0.18,10.58,1491
16:37:07.231,15420,-0.93,-0.46,0.19,10.52,1492
16:37:07.233,15430,-0.83,-0.56,0.13,10.08,1493
16:37:07.234,15440,-0.77,-0.62,0.10,9.92,1494
16:37:07.235,15450,-0.75,-0.66,0.12,10.07,1495
16:37:07.235,15460,-0.78,-0.65,0.11,10.21,1496
16:37:07.249,15470,-0.78,-0.62,0.09,10.02,1497
16:37:07.258,15480,-0.78,-0.60,0.09,9.87,1498
16:37:07.267,15490,-0.79,-0.60,0.08,9.98,1499
16:37:07.277,15500,-0.82,-0.60,0.07,10.16,1500
16:37:07.289,15510,-0.85,-0.59,0.05,10.33,1501
16:37:07.304,15520,-0.86,-0.60,0.08,10.55,1502
16:37:07.307,15530,-0.92,-0.58,0.09,10.92,1503
16:37:07.318,15540,-0.91,-0.50,0.05,10.34,1504
16:37:07.330,15550,-0.88,-0.53,-0.00,10.24,1505
16:37:07.338,15560,-0.86,-0.52,-0.05,10.03,1506
16:37:07.347,15570,-0.81,-0.59,-0.09,10.10,1507
16:37:07.357,15580,-0.83,-0.66,-0.09,10.68,1508
16:37:07.367,15590,-0.93,-0.68,-0.06,11.50,1509
16:37:07.376,15600,-0.95,-0.62,-0.01,11.34,1510
16:37:07.388,15610,-0.92,-0.57,-0.02,10.86,1511
16:37:07.402,15620,-0.87,-0.55,-0.03,10.31,1512
16:37:07.406,15630,-0.83,-0.53,-0.07,9.88,1513
16:37:07.420,15640,-0.84,-0.55,-0.07,10.03,1514
16:37:07.431,15650,-0.91,-0.59,-0.02,10.89,1515
16:37:07.436,15660,-1.01,-0.61,0.05,11.85,1516
16:37:07.447,15670,-1.13,-0.57,0.07,12.63,1517
16:37:07.456,15680,-1.22,-0.53,0.03,13.29,1518
16:37:07.466,15690,-1.30,-0.50,-0.01,13.92,1519
16:37:07.475,15700,-1.40,-0.44,0.07,14.66,1520
16:37:07.485,15710,-1.51,-0.40,-0.10,15.66,1521
16:37:07.500,15720,-1.72,-0.34,-0.21,17.64,1522
16:37:07.522,15730,-1.88,-0.35,-0.35,19.42,1523
16:37:07.524,15740,-1.67,-0.49,-0.42,17.91,1524
16:37:07.527,15750,-1.41,-0.71,-0.27,15.98,1525
16:37:07.538,15760,-1.12,-0.92,-0.15,14.57,1526
16:37:07.573,15770,-0.83,-1.15,0.13,14.25,1527
16:37:07.574,15780,-0.68,-1.35,0.38,15.57,1528
16:37:07.586,15790,-0.61,-1.43,0.43,16.15,1529
16:37:07.598,15800,-0.61,-1.37,0.49,15.73,1530
16:37:07.599,15810,-0.61,-1.15,0.78,15.20,1531
16:37:07.639,15820,-0.69,-1.05,1.16,17.10,1532
16:37:07.640,15830,-0.57,-1.17,1.37,18.92,1533
16:37:07.644,15840,-0.48,-1.00,1.42,17.99,1534
16:37:07.681,15850,-0.22,-0.79,1.34,15.73,1535
16:37:07.684,15860,-0.11,-0.51,1.10,12.17,1536
16:37:07.720,15870,-0.05,-0.28,0.89,9.39,1537
16:37:07.721,15880,-0.10,-0.22,0.70,7.39,1538
16:37:07.722,15890,-0.21,-0.49,0.74,9.13,1539
16:37:07.722,15900,-0.31,-0.74,0.59,9.94,1540
16:37:07.725,15910,-0.42,-0.98,0.49,11.73,1541
16:37:07.725,15920,-0.12,-0.93,0.57,10.93,1542
16:37:07.725,15930,0.05,-0.83,0.56,10.06,1543
16:37:07.725,15940,0.15,-0.72,0.56,9.23,1544
16:37:07.764,15950,0.15,-0.61,0.61,8.76,1545
16:37:07.765,15960,0.06,-0.45,0.67,8.09,1546
16:37:07.766,15970,-0.02,-0.33,0.75,8.21,1547
16:37:07.767,15980,-0.10,-0.27,0.77,8.25,1548
16:37:07.803,15990,-0.21,-0.21,0.85,9.03,1549
16:37:07.832,16000,-0.23,-0.11,0.77,8.10,1550
16:37:07.833,16010,-0.20,-0.04,0.66,6.93,1551
16:37:07.835,16020,-0.04,-0.15,0.67,6.89,1552
16:37:07.837,16030,-0.03,-0.28,0.59,6.52,1553
16:37:07.838,16040,-0.19,-0.40,0.45,6.34,1554
16:37:07.839,16050,-0.25,-0.41,0.52,7.11,1555
16:37:07.847,16060,-0.33,-0.43,0.60,8.08,1556
16:37:07.852,16070,-0.42,-0.45,0.69,9.26,1557
16:37:07.856,16080,-0.47,-0.50,0.64,9.33,1558
16:37:07.866,16090,-0.44,-0.60,0.52,9.06,1559
16:37:07.876,16100,-0.52,-0.71,0.40,9.70,1560
16:37:07.890,16110,-0.60,-0.87,0.36,11.15,1561
16:37:07.900,16120,-0.65,-0.86,0.29,11.19,1562
16:37:07.914,16130,-0.66,-0.73,0.18,9.99,1563
16:37:07.917,16140,-0.64,-0.54,0.15,8.52,1564
16:37:07.931,16150,-0.59,-0.45,0.20,7.70,1565
16:37:07.937,16160,-0.54,-0.40,0.14,6.83,1566
16:37:07.947,16170,-0.56,-0.22,-0.13,6.17,1567
16:37:07.960,16180,-0.73,0.06,-0.66,9.86,1568
16:37:07.966,16190,-0.83,0.36,-0.91,12.84,1569
16:37:07.984,16200,-0.98,0.55,-0.88,14.29,1570
16:37:07.985,16210,-0.86,0.29,-0.51,10.44,1571
16:37:08.002,16220,-0.66,-0.18,-0.30,7.46,1572
16:37:08.007,16230,-0.38,-0.68,-0.19,8.01,1573
16:37:08.019,16240,-0.15,-0.89,0.13,9.16,1574
16:37:08.026,16250,-0.27,-1.19,-0.13,12.28,1575
16:37:08.035,16260,-0.52,-1.32,-0.07,14.21,1576
16:37:08.052,16270,-1.15,-1.17,0.01,16.41,1577
16:37:08.056,16280,-1.88,-0.86,0.19,20.75,1578
16:37:08.068,16290,-2.13,-0.38,0.14,21.63,1579
16:37:08.080,16300,-2.12,-0.01,0.34,21.47,1580
16:37:08.090,16310,-1.64,0.76,0.07,18.14,1581
16:37:08.097,16320,-1.31,0.89,0.12,15.90,1582
16:37:08.109,16330,-0.89,-0.31,0.14,9.58,1583
16:37:08.115,16340,-0.44,-0.70,0.78,11.33,1584
16:37:08.134,16350,-0.33,-0.97,0.82,13.16,1585
16:37:08.135,16360,-0.07,-1.32,0.58,14.44,1586
16:37:08.155,16370,0.32,-0.99,0.36,11.02,1587
16:37:08.158,16380,-0.03,-0.72,0.53,8.94,1588
16:37:08.171,16390,-0.48,-0.58,0.53,9.17,1589
16:37:08.221,16400,-1.09,-0.61,0.50,13.43,1590
16:37:08.221,16410,-1.38,-0.57,0.54,15.86,1591
16:37:08.222,16420,-1.12,-0.67,0.34,13.50,1592
16:37:08.225,16430,-0.68,-0.89,0.24,11.41,1593
16:37:08.225,16440,-0.44,-1.04,0.09,11.38,1594
16:37:08.227,16450,-0.34,-1.09,0.04,11.41,1595
16:37:08.245,16460,-0.39,-1.07,0.04,11.41,1596
16:37:08.247,16470,-0.50,-0.96,0.13,10.90,1597
16:37:08.259,16480,-0.55,-0.90,0.23,10.82,1598
16:37:08.269,16490,-0.65,-0.84,0.23,10.86,1599
16:37:08.370,16500,-0.75,-0.77,0.22,10.96,1600
16:37:08.371,16510,-0.86,-0.64,0.25,10.97,1601
16:37:08.371,16520,-0.93,-0.50,0.30,10.97,1602
16:37:08.373,16530,-0.96,-0.42,0.29,10.88,1603
16:37:08.374,16540,-0.86,-0.49,0.24,10.18,1604
16:37:08.411,16550,-0.74,-0.65,0.16,9.98,1605
16:37:08.413,16560,-0.67,-0.76,0.12,10.24,1606
16:37:08.414,16570,-0.62,-0.84,0.09,10.51,1607
16:37:08.414,16580,-0.64,-0.81,0.05,10.34,1608
16:37:08.415,16590,-0.71,-0.70,0.03,9.95,1609
16:37:08.456,16600,-0.81,-0.57,0.09,9.98,1610
16:37:08.456,16610,-0.89,-0.49,0.13,10.23,1611
16:37:08.456,16620,-0.93,-0.45,0.14,10.44,1612
16:37:08.456,16630,-0.92,-0.44,0.16,10.37,1613
16:37:08.460,16640,-0.88,-0.51,0.16,10.28,1614
16:37:08.493,16650,-0.83,-0.59,0.14,10.29,1615
16:37:08.493,16660,-0.79,-0.65,0.11,10.27,1616
16:37:08.494,16670,-0.75,-0.67,0.06,10.04,1617
16:37:08.495,16680,-0.72,-0.67,0.05,9.83,1618
16:37:08.497,16690,-0.72,-0.65,0.06,9.73,1619
16:37:08.498,16700,-0.77,-0.61,0.06,9.90,1620
16:37:08.533,16710,-0.83,-0.60,0.05,10.22,1621
16:37:08.533,16720,-0.90,-0.56,0.05,10.60,1622
16:37:08.534,16730,-0.94,-0.53,0.02,10.76,1623
16:37:08.541,16740,-0.94,-0.51,-0.00,10.69,1624
16:37:08.543,16750,-0.94,-0.52,-0.05,10.73,1625
16:37:08.543,16760,-0.90,-0.56,-0.07,10.63,1626
16:37:08.544,16770,-0.91,-0.53,-0.11,10.57,1627
16:37:08.558,16780,-0.91,-0.48,-0.10,10.36,1628
16:37:08.569,16790,-0.92,-0.54,-0.06,10.71,1629
16:37:08.579,16800,-0.96,-0.53,0.01,10.98,1630
16:37:08.590,16810,-0.98,-0.53,0.01,11.09,1631
16:37:08.599,16820,-0.89,-0.56,-0.04,10.51,1632
16:37:08.609,16830,-0.82,-0.64,-0.10,10.44,1633
16:37:08.620,16840,-0.81,-0.67,-0.09,10.52,1634
16:37:08.626,16850,-0.83,-0.68,-0.06,10.71,1635
16:37:08.639,16860,-0.88,-0.68,0.01,11.11,1636
16:37:08.648,16870,-0.97,-0.67,0.08,11.86,1637
16:37:08.665,16880,-1.11,-0.61,0.16,12.75,1638
16:37:08.668,16890,-1.21,-0.52,0.15,13.22,1639
16:37:08.676,16900,-1.30,-0.40,0.09,13.62,1640
16:37:08.692,16910,-1.34,-0.37,0.04,13.86,1641
16:37:08.696,16920,-1.39,-0.39,-0.02,14.39,1642
16:37:08.706,16930,-1.48,-0.42,-0.03,15.38,1643
16:37:08.724,16940,-1.64,-0.44,-0.10,16.98,1644
16:37:08.727,16950,-1.73,-0.51,-0.27,18.29,1645
16:37:08.736,16960,-1.55,-0.65,-0.20,16.88,1646
16:37:08.746,16970,-1.21,-0.82,-0.10,14.72,1647
16:37:08.758,16980,-0.89,-1.00,0.08,13.43,1648
16:37:08.766,16990,-0.75,-1.14,0.26,13.91,1649
16:37:08.780,17000,-0.74,-1.18,0.36,14.40,1650
16:37:08.803,17010,-0.74,-1.16,0.51,14.65,1651
16:37:08.816,17020,-0.68,-1.06,0.77,14.73,1652
16:37:08.841,17030,-0.63,-0.98,1.00,15.36,1653
16:37:08.849,17040,-0.51,-0.98,1.00,14.88,1654
16:37:08.857,17050,-0.38,-0.89,1.28,16.10,1655
16:37:08.861,17060,-0.16,-0.84,1.30,15.56,1656
16:37:08.873,17070,-0.11,-0.56,1.09,12.31,1657
16:37:08.874,17080,-0.12,-0.38,0.79,8.89,1658
16:37:08.875,17090,-0.25,-0.24,0.64,7.29,1659
16:37:08.877,17100,-0.35,-0.52,0.71,9.46,1660
16:37:08.887,17110,-0.32,-0.81,0.75,11.48,1661
16:37:08.900,17120,-0.24,-0.93,0.65,11.57,1662
16:37:08.907,17130,-0.08,-0.87,0.66,10.97,1663
16:37:08.922,17140,0.07,-0.75,0.56,9.40,1664
16:37:08.927,17150,0.20,-0.65,0.53,8.66,1665
16:37:08.941,17160,0.14,-0.54,0.61,8.31,1666
16:37:08.949,17170,-0.06,-0.47,0.64,7.98,1667
16:37:08.959,17180,-0.21,-0.39,0.68,8.14,1668
16:37:08.983,17190,-0.26,-0.34,0.75,8.68,1669
16:37:08.994,17200,-0.25,-0.31,0.87,9.53,1670
16:37:08.995,17210,-0.14,-0.35,0.85,9.32,1671
16:37:09.000,17220,-0.11,-0.32,0.70,7.72,1672
16:37:09.006,17230,-0.07,-0.27,0.49,5.64,1673
16:37:09.023,17240,-0.15,-0.24,0.39,4.81,1674
16:37:09.026,17250,-0.29,-0.30,0.44,6.06,1675
16:37:09.036,17260,-0.37,-0.35,0.49,7.10,1676
16:37:09.045,17270,-0.41,-0.44,0.57,8.27,1677
16:37:09.058,17280,-0.38,-0.51,0.69,9.38,1678
16:37:09.074,17290,-0.46,-0.55,0.66,9.78,1679
16:37:09.075,17300,-0.58,-0.62,0.56,10.14,1680
16:37:09.091,17310,-0.56,-0.71,0.41,9.91,1681
16:37:09.102,17320,-0.49,-0.68,0.23,8.74,1682
16:37:09.140,17330,-0.52,-0.65,0.25,8.67,1683
16:37:09.141,17340,-0.65,-0.58,0.30,9.20,1684
16:37:09.142,17350,-0.70,-0.54,0.28,9.30,1685
16:37:09.142,17360,-0.68,-0.46,0.24,8.56,1686
16:37:09.145,17370,-0.61,-0.34,0.23,7.37,1687
16:37:09.182,17380,-0.72,-0.14,-0.04,7.34,1688
16:37:09.183,17390,-0.85,0.10,-0.36,9.31,1689
16:37:09.183,17400,-0.88,0.23,-0.67,11.29,1690
16:37:09.185,17410,-0.87,0.22,-0.73,11.55,1691
16:37:09.222,17420,-0.73,-0.06,-0.61,9.56,1692
16:37:09.223,17430,-0.59,-0.34,-0.49,8.39,1693
16:37:09.225,17440,-0.35,-0.57,-0.31,7.36,1694
16:37:09.225,17450,-0.26,-0.84,-0.18,8.91,1695
16:37:09.255,17460,-0.33,-0.96,-0.04,10.15,1696
16:37:09.255,17470,-0.54,-0.94,-0.03,10.80,1697
16:37:09.259,17480,-1.19,-0.76,0.07,14.15,1698
16:37:09.290,17490,-2.13,-0.71,0.44,22.83,1699
16:37:09.290,17500,-2.13,-0.36,0.80,23.00,1700
16:37:09.291,17510,-2.13,0.37,0.27,21.75,1701
16:37:09.296,17520,-1.42,0.99,-0.14,17.43,1702
16:37:09.332,17530,-0.88,0.21,-0.16,9.21,1703
16:37:09.332,17540,-0.70,-1.11,0.25,13.34,1704
16:37:09.333,17550,-0.65,-0.88,0.35,11.46,1705
16:37:09.336,17560,-0.41,-1.08,0.67,13.32,1706
16:37:09.346,17570,-0.17,-1.29,0.65,14.56,1707
16:37:09.360,17580,-0.13,-1.30,0.28,13.37,1708
16:37:09.367,17590,-0.17,-0.73,0.34,8.26,1709
16:37:09.375,17600,-0.56,-0.58,0.47,9.34,1710
16:37:09.387,17610,-1.00,-0.54,0.50,12.38,1711
16:37:09.397,17620,-1.10,-0.57,0.49,13.34,1712
16:37:09.406,17630,-0.85,-0.87,0.30,12.53,1713
16:37:09.422,17640,-0.59,-1.01,0.15,11.78,1714
16:37:09.426,17650,-0.47,-1.06,0.10,11.66,1715
16:37:09.441,17660,-0.37,-1.03,0.04,10.98,1716
16:37:09.446,17670,-0.50,-0.91,0.09,10.41,1717
16:37:09.458,17680,-0.59,-0.76,0.23,9.89,1718
16:37:09.467,17690,-0.67,-0.69,0.22,9.89,1719
16:37:09.480,17700,-0.70,-0.70,0.25,10.24,1720
16:37:09.495,17710,-0.78,-0.75,0.26,11.13,1721
16:37:09.496,17720,-0.83,-0.75,0.25,11.43,1722
16:37:09.513,17730,-0.86,-0.66,0.22,11.04,1723
16:37:09.516,17740,-0.87,-0.54,0.22,10.54,1724
16:37:09.535,17750,-0.86,-0.48,0.17,10.03,1725
16:37:09.535,17760,-0.81,-0.54,0.06,9.71,1726
16:37:09.551,17770,-0.78,-0.61,0.05,9.90,1727
16:37:09.556,17780,-0.75,-0.69,0.06,10.20,1728
16:37:09.571,17790,-0.69,-0.77,0.08,10.38,1729
16:37:09.576,17800,-0.67,-0.76,0.10,10.21,1730
16:37:09.588,17810,-0.70,-0.69,0.13,9.94,1731
16:37:09.600,17820,-0.76,-0.60,0.13,9.80,1732
16:37:09.615,17830,-0.85,-0.50,0.14,9.99,1733
16:37:09.618,17840,-0.91,-0.48,0.15,10.37,1734
16:37:09.626,17850,-0.92,-0.51,0.18,10.68,1735
16:37:09.636,17860,-0.85,-0.57,0.18,10.42,1736
16:37:09.646,17870,-0.79,-0.60,0.17,10.06,1737
16:37:09.656,17880,-0.77,-0.61,0.15,9.92,1738
16:37:09.667,17890,-0.77,-0.61,0.14,9.87,1739
16:37:09.677,17900,-0.77,-0.63,0.14,10.07,1740
16:37:09.685,17910,-0.77,-0.63,0.12,10.03,1741
16:37:09.699,17920,-0.79,-0.63,0.10,10.17,1742
16:37:09.710,17930,-0.82,-0.62,0.13,10.31,1743
16:37:09.716,17940,-0.85,-0.58,0.14,10.33,1744
16:37:09.726,17950,-0.86,-0.57,0.16,10.45,1745
16:37:09.736,17960,-0.89,-0.52,0.13,10.35,1746
16:37:09.749,17970,-0.90,-0.52,0.07,10.37,1747
16:37:09.755,17980,-0.91,-0.51,0.05,10.44,1748
16:37:09.782,17990,-0.92,-0.52,0.02,10.53,1749
16:37:09.783,18000,-0.90,-0.53,-0.03,10.42,1750
16:37:09.786,18010,-0.87,-0.57,-0.07,10.42,1751
16:37:09.796,18020,-0.85,-0.61,-0.07,10.44,1752
16:37:09.814,18030,-0.86,-0.62,-0.07,10.64,1753
16:37:09.814,18040,-0.91,-0.58,-0.01,10.82,1754
16:37:09.872,18050,-0.92,-0.55,0.02,10.71,1755
16:37:09.873,18060,-0.85,-0.60,-0.01,10.39,1756
16:37:09.873,18070,-0.80,-0.66,-0.02,10.41,1757
16:37:09.874,18080,-0.86,-0.67,-0.01,10.94,1758
16:37:09.876,18090,-0.95,-0.66,0.05,11.60,1759
16:37:09.876,18100,-1.06,-0.62,0.11,12.31,1760
16:37:09.909,18110,-1.14,-0.56,0.12,12.79,1761
16:37:09.910,18120,-1.23,-0.50,0.08,13.25,1762
16:37:09.912,18130,-1.30,-0.45,0.04,13.73,1763
16:37:09.951,18140,-1.35,-0.45,-0.01,14.25,1764
16:37:09.951,18150,-1.42,-0.46,-0.02,14.90,1765
16:37:09.952,18160,-1.47,-0.44,0.05,15.40,1766
16:37:09.953,18170,-1.61,-0.44,0.04,16.72,1767
16:37:09.956,18180,-1.64,-0.40,-0.13,16.97,1768
16:37:09.991,18190,-1.52,-0.48,-0.18,16.01,1769
16:37:09.991,18200,-1.12,-0.64,-0.02,12.92,1770
16:37:09.992,18210,-0.86,-0.83,0.13,12.02,1771
16:37:09.995,18220,-0.69,-1.04,0.32,12.87,1772
16:37:10.032,18230,-0.64,-1.14,0.42,13.73,1773
16:37:10.033,18240,-0.65,-1.17,0.56,14.51,1774
16:37:10.035,18250,-0.66,-1.11,0.77,15.06,1775
16:37:10.036,18260,-0.56,-1.06,0.96,15.35,1776
16:37:10.061,18270,-0.55,-0.95,1.07,15.37,1777
16:37:10.062,18280,-0.38,-0.82,1.10,14.20,1778
16:37:10.065,18290,-0.28,-0.66,1.22,14.17,1779
16:37:10.078,18300,-0.21,-0.43,0.96,10.75,1780
16:37:10.090,18310,-0.26,-0.26,0.70,7.87,1781
16:37:10.097,18320,-0.36,-0.29,0.64,7.93,1782
16:37:10.106,18330,-0.38,-0.54,0.73,9.84,1783
16:37:10.121,18340,-0.34,-0.76,0.65,10.53,1784
16:37:10.126,18350,-0.22,-0.88,0.67,11.25,1785
16:37:10.137,18360,-0.07,-0.84,0.58,10.25,1786
16:37:10.146,18370,0.08,-0.78,0.52,9.42,1787
16:37:10.163,18380,0.17,-0.68,0.56,8.98,1788
16:37:10.166,18390,-0.01,-0.54,0.58,7.88,1789
16:37:10.181,18400,-0.17,-0.42,0.62,7.63,1790
16:37:10.188,18410,-0.26,-0.37,0.65,7.87,1791
16:37:10.199,18420,-0.28,-0.33,0.73,8.52,1792
16:37:10.211,18430,-0.19,-0.39,0.78,8.95,1793
16:37:10.220,18440,-0.10,-0.47,0.69,8.38,1794
16:37:10.227,18450,-0.04,-0.47,0.58,7.43,1795
16:37:10.245,18460,-0.10,-0.46,0.53,7.06,1796
16:37:10.249,18470,-0.28,-0.39,0.51,7.04,1797
16:37:10.260,18480,-0.42,-0.33,0.57,7.75,1798
16:37:10.266,18490,-0.44,-0.31,0.62,8.25,1799
16:37:10.277,18500,-0.45,-0.27,0.66,8.47,1800
16:37:10.286,18510,-0.46,-0.34,0.69,8.97,1801
16:37:10.297,18520,-0.47,-0.48,0.70,9.70,1802
16:37:10.313,18530,-0.57,-0.59,0.62,10.26,1803
16:37:10.316,18540,-0.61,-0.67,0.45,10.08,1804
16:37:10.328,18550,-0.61,-0.61,0.38,9.41,1805
16:37:10.336,18560,-0.62,-0.62,0.37,9.51,1806
16:37:10.347,18570,-0.68,-0.55,0.36,9.49,1807
16:37:10.356,18580,-0.70,-0.47,0.28,8.91,1808
16:37:10.365,18590,-0.73,-0.39,0.24,8.59,1809
16:37:10.383,18600,-0.67,-0.25,0.23,7.56,1810
16:37:10.385,18610,-0.76,-0.09,0.02,7.64,1811
16:37:10.398,18620,-0.84,0.03,-0.39,9.31,1812
16:37:10.405,18630,-0.91,0.11,-0.66,11.31,1813
16:37:10.416,18640,-0.91,0.07,-0.79,12.11,1814
16:37:10.430,18650,-0.87,0.02,-0.72,11.29,1815
16:37:10.438,18660,-0.77,-0.20,-0.61,9.99,1816
16:37:10.446,18670,-0.59,-0.36,-0.48,8.46,1817
16:37:10.462,18680,-0.44,-0.56,-0.26,7.59,1818
16:37:10.466,18690,-0.42,-0.74,-0.09,8.50,1819
16:37:10.476,18700,-0.58,-0.77,0.01,9.62,1820
16:37:10.486,18710,-0.55,-0.80,0.09,9.77,1821
16:37:10.497,18720,-0.84,-0.76,0.07,11.34,1822
16:37:10.507,18730,-1.58,-0.69,0.16,17.32,1823
16:37:10.516,18740,-2.13,-0.39,0.43,22.02,1824
16:37:10.534,18750,-2.13,-0.07,0.28,21.45,1825
16:37:10.537,18760,-1.69,0.32,0.08,17.18,1826
16:37:10.546,18770,-1.32,0.36,-0.02,13.70,1827
16:37:10.555,18780,-1.00,-0.31,-0.17,10.58,1828
16:37:10.596,18790,-0.78,-0.68,0.11,10.39,1829
16:37:10.596,18800,-0.51,-0.94,0.39,11.40,1830
16:37:10.598,18810,-0.22,-1.05,0.61,12.30,1831
16:37:10.600,18820,-0.10,-1.19,0.29,12.33,1832
16:37:10.639,18830,0.03,-0.98,0.33,10.32,1833
16:37:10.639,18840,-0.16,-0.67,0.59,9.08,1834
16:37:10.639,18850,-0.76,-0.53,0.54,10.75,1835
16:37:10.641,18860,-1.22,-0.44,0.56,14.13,1836
16:37:10.676,18870,-1.38,-0.39,0.55,15.42,1837
16:37:10.676,18880,-0.99,-0.59,0.44,12.40,1838
16:37:10.677,18890,-0.61,-0.93,0.33,11.65,1839
16:37:10.678,18900,-0.39,-1.17,0.16,12.45,1840
16:37:10.716,18910,-0.27,-1.21,-0.08,12.41,1841
16:37:10.716,18920,-0.34,-1.13,-0.18,11.97,1842
16:37:10.718,18930,-0.51,-0.87,0.03,10.09,1843
16:37:10.719,18940,-0.66,-0.82,0.23,10.81,1844
16:37:10.757,18950,-0.81,-0.71,0.29,11.13,1845
16:37:10.757,18960,-0.91,-0.62,0.29,11.36,1846
16:37:10.759,18970,-0.96,-0.50,0.33,11.29,1847
16:37:10.799,18980,-0.94,-0.41,0.33,10.82,1848
16:37:10.799,18990,-0.92,-0.44,0.30,10.63,1849
16:37:10.801,19000,-0.82,-0.56,0.24,10.21,1850
16:37:10.801,19010,-0.81,-0.66,0.18,10.56,1851
16:37:10.804,19020,-0.81,-0.63,0.15,10.38,1852
16:37:10.806,19030,-0.72,-0.73,0.12,10.38,1853
16:37:10.817,19040,-0.67,-0.77,0.08,10.30,1854
16:37:10.826,19050,-0.70,-0.71,0.03,9.95,1855
16:37:10.838,19060,-0.73,-0.65,-0.01,9.79,1856
16:37:10.849,19070,-0.81,-0.60,0.02,10.07,1857
16:37:10.855,19080,-0.90,-0.52,0.05,10.40,1858
16:37:10.875,19090,-0.91,-0.52,0.06,10.52,1859
16:37:10.877,19100,-0.84,-0.57,0.04,10.16,1860
16:37:10.934,19110,-0.80,-0.62,0.01,10.06,1861
16:37:10.934,19120,-0.78,-0.66,-0.01,10.19,1862
16:37:10.936,19130,-0.78,-0.67,-0.01,10.27,1863
16:37:10.939,19140,-0.82,-0.61,0.02,10.24,1864
16:37:10.941,19150,-0.85,-0.55,0.03,10.15,1865
16:37:10.941,19160,-0.85,-0.55,0.04,10.12,1866
16:37:10.946,19170,-0.83,-0.58,0.04,10.15,1867
16:37:10.963,19180,-0.82,-0.61,0.03,10.20,1868
16:37:10.965,19190,-0.85,-0.62,0.02,10.54,1869
16:37:10.981,19200,-0.88,-0.61,0.04,10.70,1870
16:37:10.987,19210,-0.89,-0.59,0.04,10.69,1871
16:37:10.996,19220,-0.89,-0.58,0.04,10.64,1872
16:37:11.010,19230,-0.85,-0.52,-0.01,10.00,1873
16:37:11.021,19240,-0.86,-0.57,-0.07,10.37,1874
16:37:11.029,19250,-0.89,-0.54,-0.06,10.46,1875
16:37:11.037,19260,-0.93,-0.54,-0.06,10.76,1876
16:37:11.063,19270,-1.00,-0.53,-0.03,11.33,1877
16:37:11.063,19280,-1.03,-0.45,0.02,11.30,1878
16:37:11.065,19290,-0.96,-0.52,-0.00,10.87,1879
16:37:11.082,19300,-0.87,-0.60,-0.08,10.56,1880
16:37:11.085,19310,-0.83,-0.64,-0.13,10.52,1881
16:37:11.101,19320,-0.84,-0.65,-0.11,10.65,1882
16:37:11.106,19330,-0.91,-0.63,-0.06,11.08,1883
16:37:11.116,19340,-1.05,-0.59,-0.02,12.08,1884
16:37:11.125,19350,-1.17,-0.53,0.03,12.88,1885
16:37:11.144,19360,-1.28,-0.47,0.02,13.68,1886
16:37:11.144,19370,-1.36,-0.41,-0.00,14.22,1887
16:37:11.156,19380,-1.40,-0.35,0.04,14.47,1888
16:37:11.165,19390,-1.51,-0.32,0.03,15.45,1889
16:37:11.181,19400,-1.63,-0.35,-0.10,16.66,1890
16:37:11.187,19410,-1.68,-0.47,-0.43,17.95,1891
16:37:11.202,19420,-1.50,-0.68,-0.23,16.66,1892
16:37:11.205,19430,-1.28,-0.82,-0.15,15.27,1893
16:37:11.216,19440,-0.96,-0.98,-0.04,13.68,1894
16:37:11.274,19450,-0.70,-1.15,0.15,13.59,1895
16:37:11.274,19460,-0.62,-1.24,0.23,14.11,1896
16:37:11.324,19470,-0.61,-1.26,0.43,14.66,1897
16:37:11.324,19480,-0.68,-1.14,0.64,14.73,1898
16:37:11.325,19490,-0.70,-1.09,1.09,16.94,1899
16:37:11.327,19500,-0.67,-1.06,1.15,16.98,1900
16:37:11.328,19510,-0.71,-0.95,1.14,16.41,1901
16:37:11.407,19520,-0.27,-0.84,1.17,14.61,1902
16:37:11.407,19530,-0.05,-0.68,1.13,13.23,1903
16:37:11.407,19540,-0.07,-0.48,0.79,9.25,1904
16:37:11.407,19550,-0.18,-0.35,0.63,7.41,1905
16:37:11.409,19560,-0.29,-0.51,0.70,9.11,1906
16:37:11.409,19570,-0.39,-0.68,0.66,10.25,1907
16:37:11.409,19580,-0.33,-0.84,0.57,10.65,1908
16:37:11.410,19590,-0.14,-0.85,0.64,10.78,1909
16:37:11.446,19600,0.01,-0.81,0.59,9.98,1910
16:37:11.475,19610,0.11,-0.65,0.53,8.48,1911
16:37:11.475,19620,0.11,-0.56,0.56,8.01,1912
16:37:11.475,19630,0.01,-0.45,0.68,8.14,1913
16:37:11.475,19640,-0.14,-0.39,0.67,7.84,1914
16:37:11.475,19650,-0.26,-0.33,0.64,7.69,1915
16:37:11.475,19660,-0.25,-0.32,0.70,8.12,1916
16:37:11.475,19670,-0.16,-0.31,0.74,8.19,1917
16:37:11.479,19680,-0.11,-0.38,0.73,8.35,1918
16:37:11.482,19690,-0.05,-0.44,0.68,8.08,1919
16:37:11.483,19700,-0.10,-0.45,0.57,7.27,1920
16:37:11.484,19710,-0.24,-0.46,0.51,7.28,1921
16:37:11.497,19720,-0.32,-0.45,0.57,7.92,1922
16:37:11.513,19730,-0.32,-0.50,0.59,8.40,1923
16:37:11.517,19740,-0.28,-0.55,0.54,8.23,1924
16:37:11.525,19750,-0.32,-0.62,0.45,8.29,1925
16:37:11.536,19760,-0.39,-0.77,0.54,10.22,1926
16:37:11.549,19770,-0.56,-0.89,0.49,11.59,1927
16:37:11.558,19780,-0.67,-0.77,0.34,10.77,1928
16:37:11.566,19790,-0.69,-0.58,0.25,9.32,1929
16:37:11.577,19800,-0.75,-0.45,0.26,9.09,1930
16:37:11.588,19810,-0.73,-0.42,0.37,9.21,1931
16:37:11.598,19820,-0.72,-0.37,0.46,9.30,1932
16:37:11.608,19830,-0.78,-0.22,0.29,8.62,1933
16:37:11.617,19840,-0.85,0.06,-0.03,8.55,1934
16:37:11.626,19850,-0.99,0.41,-0.49,11.74,1935
16:37:11.641,19860,-0.95,0.60,-0.84,14.04,1936
16:37:11.645,19870,-0.97,0.46,-0.95,14.34,1937
16:37:11.657,19880,-0.72,0.04,-0.76,10.43,1938
16:37:11.666,19890,-0.52,-0.43,-0.51,8.47,1939
16:37:11.677,19900,-0.32,-0.72,-0.28,8.33,1940
16:37:11.692,19910,-0.13,-0.86,-0.08,8.73,1941
16:37:11.697,19920,-0.07,-0.80,0.03,7.99,1942
16:37:11.710,19930,-0.01,-0.83,0.28,8.76,1943
16:37:11.716,19940,-0.62,-0.80,0.31,10.64,1944
16:37:11.729,19950,-1.14,-0.74,0.46,14.35,1945
16:37:11.739,19960,-1.96,-0.85,0.54,22.03,1946
16:37:11.748,19970,-2.13,-0.43,0.55,22.36,1947
16:37:11.756,19980,-2.13,0.62,-0.02,22.14,1948
16:37:11.767,19990,-1.74,0.77,-0.16,19.12,1949
16:37:11.778,20000,-1.28,0.07,-0.19,12.93,1950
16:37:11.790,20010,-0.87,-0.59,0.24,10.74,1951
16:37:11.800,20020,-0.72,-0.87,-0.08,11.33,1952
16:37:11.806,20030,-0.56,-1.04,0.15,11.93,1953
16:37:11.816,20040,-0.29,-1.07,0.54,12.36,1954
16:37:11.830,20050,-0.33,-1.02,0.37,11.36,1955
16:37:11.839,20060,-0.02,-0.98,0.47,10.88,1956
16:37:11.846,20070,-0.25,-0.70,0.57,9.40,1957
16:37:11.856,20080,-0.65,-0.57,0.53,10.15,1958
16:37:11.866,20090,-1.05,-0.50,0.53,12.80,1959
16:37:11.882,20100,-1.19,-0.53,0.52,14.07,1960
16:37:11.885,20110,-0.92,-0.69,0.42,12.25,1961
16:37:11.904,20120,-0.67,-0.82,0.29,11.01,1962
16:37:11.906,20130,-0.55,-0.93,0.21,10.97,1963
16:37:11.917,20140,-0.49,-0.98,0.17,11.13,1964
16:37:11.926,20150,-0.44,-1.00,0.14,11.00,1965
16:37:11.935,20160,-0.44,-0.95,0.14,10.54,1966
16:37:11.949,20170,-0.52,-0.92,0.22,10.79,1967
16:37:12.001,20180,-0.65,-0.89,0.22,11.28,1968
16:37:12.002,20190,-0.77,-0.80,0.23,11.29,1969
16:37:12.003,20200,-0.87,-0.64,0.25,11.05,1970
16:37:12.004,20210,-0.94,-0.46,0.27,10.80,1971
16:37:12.005,20220,-0.97,-0.37,0.28,10.75,1972
16:37:12.007,20230,-0.89,-0.42,0.25,10.17,1973
16:37:12.042,20240,-0.83,-0.52,0.18,9.96,1974
16:37:12.042,20250,-0.77,-0.65,0.13,10.15,1975
16:37:12.047,20260,-0.68,-0.78,0.10,10.40,1976
16:37:12.049,20270,-0.63,-0.82,0.05,10.35,1977
16:37:12.084,20280,-0.63,-0.81,-0.02,10.27,1978
16:37:12.141,20290,-0.68,-0.74,-0.03,10.04,1979
16:37:12.141,20300,-0.77,-0.65,-0.00,10.09,1980
16:37:12.141,20310,-0.87,-0.56,0.04,10.41,1981
16:37:12.141,20320,-0.93,-0.47,0.08,10.48,1982
16:37:12.141,20330,-0.93,-0.46,0.10,10.47,1983
16:37:12.174,20340,-0.89,-0.53,0.10,10.40,1984
16:37:12.174,20350,-0.84,-0.56,0.07,10.15,1985
16:37:12.178,20360,-0.79,-0.61,0.05,9.96,1986
16:37:12.178,20370,-0.77,-0.64,0.06,9.99,1987
16:37:12.178,20380,-0.77,-0.62,0.02,9.90,1988
16:37:12.179,20390,-0.79,-0.63,0.04,10.09,1989
16:37:12.179,20400,-0.84,-0.63,0.06,10.53,1990
16:37:12.193,20410,-0.87,-0.61,0.05,10.67,1991
16:37:12.195,20420,-0.87,-0.59,0.07,10.56,1992
16:37:12.210,20430,-0.88,-0.55,0.07,10.44,1993
16:37:12.218,20440,-0.90,-0.48,0.05,10.17,1994
16:37:12.226,20450,-0.89,-0.50,0.01,10.17,1995
16:37:12.237,20460,-0.87,-0.53,-0.01,10.16,1996
16:37:12.247,20470,-0.88,-0.58,-0.04,10.53,1997
16:37:12.262,20480,-0.85,-0.62,-0.07,10.56,1998
16:37:12.264,20490,-0.88,-0.64,-0.07,10.92,1999
16:37:12.277,20500,-0.98,-0.56,-0.03,11.35,2000
16:37:12.287,20510,-1.00,-0.48,-0.00,11.14,2001
16:37:12.297,20520,-0.91,-0.52,-0.06,10.52,2002
16:37:12.311,20530,-0.83,-0.57,-0.09,10.09,2003
16:37:12.315,20540,-0.84,-0.61,-0.08,10.42,2004
16:37:12.341,20550,-0.94,-0.65,-0.01,11.39,2005
16:37:12.343,20560,-1.05,-0.61,0.04,12.11,2006
16:37:12.346,20570,-1.13,-0.53,0.06,12.53,2007
16:37:12.355,20580,-1.22,-0.46,0.07,13.06,2008
16:37:12.366,20590,-1.33,-0.41,0.03,13.89,2009
16:37:12.379,20600,-1.39,-0.36,0.07,14.40,2010
16:37:12.389,20610,-1.55,-0.34,-0.05,15.84,2011
16:37:12.395,20620,-1.68,-0.33,-0.24,17.28,2012
16:37:12.405,20630,-1.70,-0.41,-0.38,17.95,2013
16:37:12.418,20640,-1.53,-0.53,-0.20,16.32,2014
16:37:12.425,20650,-1.36,-0.71,-0.10,15.39,2015
16:37:12.436,20660,-1.10,-0.87,0.07,13.99,2016
16:37:12.446,20670,-0.85,-0.98,0.27,13.25,2017
16:37:12.458,20680,-0.73,-1.07,0.43,13.65,2018
16:37:12.466,20690,-0.59,-1.09,0.59,13.75,2019
16:37:12.475,20700,-0.58,-1.08,0.64,13.83,2020
16:37:12.489,20710,-0.59,-1.00,0.79,14.02,2021
16:37:12.499,20720,-0.58,-1.03,1.16,16.52,2022
16:37:12.505,20730,-0.36,-1.11,1.36,17.94,2023
16:37:12.516,20740,-0.32,-0.98,1.26,16.23,2024
16:37:12.525,20750,-0.21,-0.73,1.11,13.45,2025
16:37:12.541,20760,-0.02,-0.46,0.94,10.50,2026
16:37:12.545,20770,0.01,-0.38,0.64,7.45,2027
16:37:12.559,20780,-0.11,-0.56,0.44,7.21,2028
16:37:12.569,20790,-0.30,-0.78,0.50,9.75,2029
16:37:12.578,20800,-0.28,-0.79,0.72,11.04,2030
16:37:12.588,20810,-0.17,-0.87,0.56,10.45,2031
16:37:12.601,20820,0.07,-0.86,0.55,10.29,2032
16:37:12.605,20830,0.16,-0.78,0.59,9.95,2033
16:37:12.619,20840,0.03,-0.58,0.60,8.30,2034
16:37:12.629,20850,-0.08,-0.43,0.64,7.74,2035
16:37:12.638,20860,-0.20,-0.34,0.73,8.32,2036
16:37:12.645,20870,-0.30,-0.33,0.72,8.52,2037
16:37:12.658,20880,-0.40,-0.28,0.78,9.19,2038
16:37:12.668,20890,-0.28,-0.23,0.88,9.50,2039
16:37:12.678,20900,-0.08,-0.33,0.81,8.75,2040
16:37:12.687,20910,-0.07,-0.42,0.56,7.07,2041
16:37:12.727,20920,-0.17,-0.38,0.49,6.46,2042
16:37:12.729,20930,-0.24,-0.38,0.51,6.84,2043
16:37:12.730,20940,-0.28,-0.44,0.48,7.12,2044
16:37:12.731,20950,-0.28,-0.44,0.46,6.98,2045
16:37:12.769,20960,-0.29,-0.47,0.51,7.49,2046
16:37:12.770,20970,-0.29,-0.55,0.65,8.98,2047
16:37:12.771,20980,-0.42,-0.64,0.71,10.40,2048
16:37:12.772,20990,-0.56,-0.66,0.67,10.91,2049
16:37:12.775,21000,-0.63,-0.65,0.65,11.17,2050
16:37:12.810,21010,-0.68,-0.61,0.40,9.97,2051
16:37:12.811,21020,-0.64,-0.56,0.27,8.92,2052
16:37:12.812,21030,-0.69,-0.51,0.21,8.87,2053
16:37:12.815,21040,-0.78,-0.45,0.26,9.37,2054
16:37:12.851,21050,-0.83,-0.39,0.31,9.62,2055
16:37:12.853,21060,-0.80,-0.27,0.26,8.89,2056
16:37:12.854,21070,-0.81,-0.08,-0.00,8.14,2057
16:37:12.855,21080,-0.73,0.02,-0.47,8.66,2058
16:37:12.892,21090,-0.81,0.21,-0.76,11.32,2059
16:37:12.895,21100,-0.76,0.05,-0.92,11.93,2060
16:37:12.896,21110,-0.75,-0.01,-0.84,11.26,2061
16:37:12.898,21120,-0.72,-0.16,-0.57,9.29,2062
16:37:12.921,21130,-0.62,-0.36,-0.31,7.83,2063
16:37:12.922,21140,-0.45,-0.55,-0.08,7.17,2064
16:37:12.925,21150,-0.32,-0.66,0.02,7.35,2065
16:37:12.941,21160,-0.26,-0.61,0.22,7.01,2066
16:37:12.945,21170,-0.64,-0.83,0.19,10.69,2067
16:37:12.959,21180,-0.93,-0.87,0.32,13.16,2068
16:37:12.965,21190,-1.38,-0.93,0.28,16.85,2069
16:37:12.975,21200,-1.80,-0.79,0.26,19.87,2070
16:37:12.989,21210,-1.94,-0.28,0.03,19.57,2071
16:37:13.001,21220,-1.72,0.07,0.03,17.19,2072
16:37:13.009,21230,-1.51,0.30,-0.14,15.49,2073
16:37:13.017,21240,-1.33,0.11,0.09,13.42,2074
16:37:13.037,21250,-1.14,-0.25,0.22,11.90,2075
16:37:13.038,21260,-0.84,-0.71,0.11,11.08,2076
16:37:13.045,21270,-0.50,-0.93,0.27,10.94,2077
16:37:13.062,21280,-0.32,-1.08,0.29,11.64,2078
16:37:13.064,21290,-0.23,-1.07,0.27,11.30,2079
16:37:13.075,21300,-0.18,-0.87,0.28,9.27,2080
16:37:13.087,21310,-0.37,-0.66,0.58,9.57,2081
16:37:13.097,21320,-0.84,-0.50,0.45,10.76,2082
16:37:13.109,21330,-1.27,-0.40,0.49,14.18,2083
16:37:13.118,21340,-1.29,-0.33,0.39,13.86,2084
16:37:13.125,21350,-0.97,-0.60,0.23,11.61,2085
16:37:13.138,21360,-0.58,-0.91,0.14,10.93,2086
16:37:13.145,21370,-0.42,-1.13,0.10,12.12,2087
16:37:13.154,21380,-0.30,-1.26,-0.18,13.12,2088
16:37:13.167,21390,-0.34,-1.15,-0.15,12.07,2089
16:37:13.178,21400,-0.52,-0.91,0.03,10.48,2090
16:37:13.188,21410,-0.64,-0.83,0.19,10.59,2091
16:37:13.197,21420,-0.73,-0.76,0.24,10.77,2092
16:37:13.205,21430,-0.82,-0.66,0.25,10.81,2093
16:37:13.221,21440,-0.92,-0.59,0.23,11.15,2094
16:37:13.225,21450,-0.95,-0.45,0.24,10.79,2095
16:37:13.234,21460,-0.98,-0.38,0.28,10.84,2096
16:37:13.247,21470,-0.92,-0.37,0.29,10.31,2097
16:37:13.256,21480,-0.83,-0.54,0.19,10.04,2098
16:37:13.270,21490,-0.76,-0.66,0.12,10.11,2099
16:37:13.275,21500,-0.70,-0.75,0.09,10.32,2100
16:37:13.286,21510,-0.68,-0.78,0.06,10.36,2101
16:37:13.304,21520,-0.68,-0.73,0.04,9.98,2102
16:37:13.305,21530,-0.75,-0.64,0.07,9.85,2103
16:37:13.317,21540,-0.80,-0.56,0.09,9.86,2104
16:37:13.325,21550,-0.85,-0.53,0.09,10.04,2105
16:37:13.334,21560,-0.88,-0.53,0.09,10.30,2106
16:37:13.344,21570,-0.88,-0.55,0.08,10.40,2107
16:37:13.354,21580,-0.85,-0.60,0.08,10.39,2108
16:37:13.395,21590,-0.82,-0.61,0.08,10.25,2109
16:37:13.398,21600,-0.77,-0.61,0.07,9.89,2110
16:37:13.399,21610,-0.77,-0.61,0.07,9.84,2111
16:37:13.400,21620,-0.78,-0.61,0.08,10.00,2112
16:37:13.407,21630,-0.84,-0.57,0.08,10.17,2113
16:37:13.417,21640,-0.88,-0.55,0.08,10.42,2114
16:37:13.428,21650,-0.91,-0.55,0.10,10.69,2115
16:37:13.438,21660,-0.93,-0.56,0.10,10.93,2116
16:37:13.450,21670,-0.94,-0.53,0.12,10.83,2117
16:37:13.457,21680,-0.93,-0.52,0.06,10.67,2118
16:37:13.466,21690,-0.88,-0.54,0.01,10.33,2119
16:37:13.475,21700,-0.90,-0.54,-0.03,10.51,2120
16:37:13.527,21710,-0.87,-0.56,-0.06,10.34,2121
16:37:13.528,21720,-0.85,-0.56,-0.10,10.24,2122
16:37:13.530,21730,-0.85,-0.59,-0.10,10.43,2123
16:37:13.530,21740,-0.89,-0.60,-0.04,10.77,2124
16:37:13.533,21750,-0.93,-0.55,0.01,10.82,2125
16:37:13.568,21760,-0.91,-0.52,-0.00,10.52,2126
16:37:13.572,21770,-0.83,-0.59,-0.04,10.21,2127
16:37:13.572,21780,-0.83,-0.66,-0.06,10.65,2128
16:37:13.572,21790,-0.92,-0.66,-0.03,11.39,2129
16:37:13.601,21800,-1.01,-0.63,0.01,11.92,2130
16:37:13.602,21810,-1.10,-0.58,0.03,12.39,2131
16:37:13.603,21820,-1.17,-0.53,0.03,12.85,2132
16:37:13.606,21830,-1.27,-0.44,0.05,13.43,2133
16:37:13.643,21840,-1.40,-0.33,0.03,14.39,2134
16:37:13.644,21850,-1.51,-0.23,0.05,15.26,2135
16:37:13.644,21860,-1.62,-0.17,0.13,16.33,2136
16:37:13.647,21870,-1.81,-0.22,-0.03,18.21,2137
16:37:13.683,21880,-1.75,-0.40,-0.49,18.63,2138
16:37:13.685,21890,-1.48,-0.66,-0.24,16.37,2139
16:37:13.685,21900,-1.18,-0.92,-0.10,15.03,2140
16:37:13.686,21910,-0.85,-1.12,0.07,14.04,2141
16:37:13.724,21920,-0.69,-1.36,0.06,15.29,2142
16:37:13.725,21930,-0.57,-1.38,0.35,15.32,2143
16:37:13.727,21940,-0.58,-1.35,0.66,16.12,2144
16:37:13.729,21950,-0.75,-1.27,0.88,17.19,2145
16:37:13.744,21960,-0.70,-1.13,1.55,20.48,2146
16:37:13.746,21970,-0.59,-0.93,1.13,15.76,2147
16:37:13.756,21980,-0.39,-0.80,1.21,15.03,2148
16:37:13.765,21990,-0.17,-0.66,1.19,13.73,2149
16:37:13.779,22000,-0.14,-0.43,0.96,10.58,2150
16:37:13.789,22010,-0.21,-0.28,0.72,7.99,2151
16:37:13.799,22020,-0.28,-0.35,0.73,8.51,2152
16:37:13.809,22030,-0.34,-0.57,0.72,9.78,2153
16:37:13.820,22040,-0.38,-0.73,0.64,10.45,2154
16:37:13.826,22050,-0.21,-0.81,0.54,9.96,2155
16:37:13.834,22060,0.00,-0.84,0.63,10.45,2156
16:37:13.848,22070,0.16,-0.79,0.63,10.21,2157
16:37:13.857,22080,0.22,-0.64,0.59,8.96,2158
16:37:13.866,22090,0.05,-0.42,0.58,7.17,2159
16:37:13.884,22100,-0.12,-0.31,0.61,6.92,2160
16:37:13.885,22110,-0.19,-0.26,0.69,7.65,2161
16:37:13.899,22120,-0.26,-0.24,0.81,8.87,2162
16:37:13.908,22130,-0.23,-0.27,0.83,9.04,2163
16:37:13.916,22140,-0.10,-0.32,0.83,8.96,2164
16:37:13.930,22150,0.02,-0.38,0.74,8.38,2165
16:37:13.935,22160,0.06,-0.41,0.65,7.69,2166
16:37:13.945,22170,-0.07,-0.41,0.58,7.16,2167
16:37:13.957,22180,-0.26,-0.39,0.56,7.33,2168
16:37:13.967,22190,-0.40,-0.39,0.51,7.62,2169
16:37:13.975,22200,-0.39,-0.44,0.46,7.44,2170
16:37:13.985,22210,-0.37,-0.44,0.49,7.56,2171
16:37:13.995,22220,-0.40,-0.40,0.44,7.17,2172
16:37:14.009,22230,-0.44,-0.58,0.48,8.68,2173
16:37:14.015,22240,-0.52,-0.75,0.44,10.07,2174
16:37:14.025,22250,-0.62,-0.80,0.32,10.64,2175
16:37:14.040,22260,-0.66,-0.71,0.25,9.98,2176
16:37:14.048,22270,-0.64,-0.58,0.28,9.13,2177
16:37:14.057,22280,-0.65,-0.47,0.33,8.64,2178
16:37:14.069,22290,-0.70,-0.32,0.41,8.73,2179
16:37:14.079,22300,-0.79,-0.13,0.22,8.33,2180
16:37:14.086,22310,-0.85,0.09,-0.21,8.77,2181
16:37:14.098,22320,-0.85,0.29,-0.58,10.73,2182
16:37:14.106,22330,-0.78,0.18,-0.65,10.33,2183
16:37:14.116,22340,-0.77,-0.03,-0.68,10.25,2184
16:37:14.128,22350,-0.67,-0.20,-0.49,8.53,2185
16:37:14.137,22360,-0.56,-0.40,-0.37,7.81,2186
16:37:14.189,22370,-0.37,-0.45,-0.26,6.38,2187
16:37:14.190,22380,-0.26,-0.53,-0.01,5.88,2188
16:37:14.191,22390,-0.57,-0.62,0.11,8.45,2189
16:37:14.193,22400,-0.82,-0.67,0.15,10.73,2190
16:37:14.194,22410,-1.43,-0.82,0.23,16.62,2191
16:37:14.195,22420,-2.13,-0.79,0.41,23.03,2192
16:37:14.230,22430,-2.13,-0.31,0.53,22.11,2193
16:37:14.231,22440,-1.65,0.33,-0.43,17.36,2194
16:37:14.232,22450,-1.11,0.04,-0.38,11.73,2195
16:37:14.234,22460,-0.71,-0.55,0.03,8.95,2196
16:37:14.271,22470,-0.54,-0.90,0.22,10.67,2197
16:37:14.272,22480,-0.42,-0.93,0.61,11.90,2198
16:37:14.274,22490,-0.38,-0.99,1.21,16.13,2199
16:37:14.275,22500,-0.22,-0.69,0.56,9.20,2200
16:37:14.313,22510,-0.30,-0.48,0.57,8.06,2201
16:37:14.314,22520,-0.55,-0.38,0.54,8.63,2202
16:37:14.315,22530,-0.97,-0.39,0.47,11.51,2203
16:37:14.316,22540,-1.16,-0.53,0.39,13.35,2204
16:37:14.354,22550,-0.96,-0.81,0.30,12.89,2205
16:37:14.355,22560,-0.70,-0.98,0.19,12.16,2206
16:37:14.356,22570,-0.45,-1.12,-0.02,12.06,2207
16:37:14.358,22580,-0.35,-1.08,0.14,11.40,2208
16:37:14.369,22590,-0.37,-1.09,0.11,11.58,2209
16:37:14.381,22600,-0.46,-0.88,0.15,10.05,2210
16:37:14.385,22610,-0.57,-0.81,0.20,10.10,2211
16:37:14.400,22620,-0.64,-0.78,0.20,10.31,2212
16:37:14.405,22630,-0.72,-0.83,0.24,11.26,2213
16:37:14.417,22640,-0.80,-0.74,0.28,11.26,2214
16:37:14.426,22650,-0.86,-0.64,0.27,11.07,2215
16:37:14.439,22660,-0.86,-0.54,0.25,10.48,2216
16:37:14.445,22670,-0.84,-0.50,0.23,10.02,2217
16:37:14.454,22680,-0.81,-0.51,0.18,9.74,2218
16:37:14.469,22690,-0.77,-0.59,0.14,9.80,2219
16:37:14.479,22700,-0.73,-0.69,0.10,10.10,2220
16:37:14.486,22710,-0.68,-0.78,0.07,10.33,2221
16:37:14.494,22720,-0.64,-0.81,0.06,10.34,2222
16:37:14.504,22730,-0.68,-0.76,0.07,10.21,2223
16:37:14.514,22740,-0.76,-0.64,0.11,9.97,2224
16:37:14.525,22750,-0.85,-0.53,0.12,10.12,2225
16:37:14.536,22760,-0.92,-0.47,0.15,10.45,2226
16:37:14.546,22770,-0.97,-0.42,0.16,10.72,2227
16:37:14.557,22780,-0.97,-0.38,0.17,10.57,2228
16:37:14.568,22790,-0.90,-0.45,0.18,10.23,2229
16:37:14.580,22800,-0.80,-0.57,0.18,10.02,2230
16:37:14.588,22810,-0.73,-0.67,0.16,10.04,2231
16:37:14.601,22820,-0.69,-0.72,0.17,10.13,2232
16:37:14.613,22830,-0.70,-0.71,0.17,10.12,2233
16:37:14.618,22840,-0.76,-0.61,0.18,9.97,2234
16:37:14.629,22850,-0.81,-0.57,0.20,10.06,2235
16:37:14.635,22860,-0.84,-0.57,0.22,10.36,2236
16:37:14.651,22870,-0.83,-0.61,0.25,10.58,2237
16:37:14.656,22880,-0.83,-0.61,0.21,10.50,2238
16:37:14.675,22890,-0.83,-0.60,0.17,10.37,2239
16:37:14.676,22900,-0.87,-0.55,0.12,10.38,2240
16:37:14.720,22910,-0.91,-0.51,0.06,10.44,2241
16:37:14.721,22920,-0.89,-0.51,-0.03,10.26,2242
16:37:14.722,22930,-0.86,-0.54,-0.08,10.21,2243
16:37:14.725,22940,-0.89,-0.58,-0.11,10.70,2244
16:37:14.726,22950,-0.93,-0.59,-0.10,11.07,2245
16:37:14.735,22960,-0.99,-0.53,-0.07,11.23,2246
16:37:14.744,22970,-0.95,-0.50,-0.08,10.78,2247
16:37:14.758,22980,-0.87,-0.56,-0.10,10.35,2248
16:37:14.765,22990,-0.83,-0.61,-0.10,10.35,2249
16:37:14.805,23000,-0.87,-0.62,-0.05,10.68,2250
16:37:14.806,23010,-0.95,-0.61,0.03,11.30,2251
16:37:14.808,23020,-1.02,-0.58,0.07,11.80,2252
16:37:14.809,23030,-1.11,-0.55,0.10,12.41,2253
16:37:14.819,23040,-1.19,-0.50,0.11,12.96,2254
16:37:14.825,23050,-1.29,-0.43,0.08,13.64,2255
16:37:14.842,23060,-1.37,-0.40,0.05,14.30,2256
16:37:14.844,23070,-1.43,-0.40,0.12,14.88,2257
16:37:14.854,23080,-1.60,-0.41,0.04,16.56,2258
16:37:14.866,23090,-1.69,-0.38,-0.20,17.43,2259
16:37:14.875,23100,-1.75,-0.46,-0.22,18.20,2260
16:37:14.901,23110,-1.38,-0.70,-0.18,15.54,2261
16:37:14.905,23120,-1.08,-0.91,-0.01,14.09,2262
16:37:14.905,23130,-0.83,-1.07,0.11,13.56,2263
16:37:14.945,23140,-0.68,-1.15,0.31,13.74,2264
16:37:14.946,23150,-0.63,-1.22,0.42,14.39,2265
16:37:14.947,23160,-0.62,-1.19,0.62,14.81,2266
16:37:14.948,23170,-0.62,-1.05,0.78,14.47,2267
16:37:14.986,23180,-0.52,-0.94,1.17,15.90,2268
16:37:14.987,23190,-0.43,-0.84,1.11,14.56,2269
16:37:14.988,23200,-0.23,-0.85,1.27,15.47,2270
16:37:14.990,23210,-0.10,-0.67,1.27,14.37,2271
16:37:15.027,23220,-0.23,-0.36,0.89,9.87,2272
16:37:15.029,23230,-0.33,-0.23,0.66,7.76,2273
16:37:15.030,23240,-0.38,-0.35,0.68,8.53,2274
16:37:15.031,23250,-0.35,-0.60,0.74,10.14,2275
16:37:15.069,23260,-0.30,-0.80,0.69,10.97,2276
16:37:15.070,23270,-0.12,-0.89,0.61,10.82,2277
16:37:15.071,23280,0.07,-0.80,0.62,10.15,2278
16:37:15.072,23290,0.20,-0.71,0.56,9.30,2279
16:37:15.073,23300,0.20,-0.59,0.56,8.34,2280
16:37:15.110,23310,-0.04,-0.43,0.61,7.45,2281
16:37:15.111,23320,-0.18,-0.38,0.64,7.64,2282
16:37:15.113,23330,-0.27,-0.35,0.73,8.50,2283
16:37:15.113,23340,-0.28,-0.35,0.75,8.73,2284
16:37:15.136,23350,-0.14,-0.39,0.80,9.04,2285
16:37:15.138,23360,-0.03,-0.44,0.74,8.57,2286
16:37:15.145,23370,-0.03,-0.44,0.62,7.61,2287
16:37:15.156,23380,-0.09,-0.43,0.60,7.46,2288
16:37:15.166,23390,-0.24,-0.40,0.58,7.44,2289
16:37:15.176,23400,-0.32,-0.35,0.56,7.34,2290
16:37:15.194,23410,-0.34,-0.34,0.49,6.87,2291
16:37:15.195,23420,-0.35,-0.30,0.41,6.16,2292
16:37:15.205,23430,-0.36,-0.36,0.54,7.46,2293
16:37:15.215,23440,-0.41,-0.52,0.63,9.14,2294
16:37:15.230,23450,-0.53,-0.67,0.60,10.49,2295
16:37:15.235,23460,-0.61,-0.77,0.53,11.21,2296
16:37:15.244,23470,-0.63,-0.78,0.43,10.92,2297
16:37:15.254,23480,-0.60,-0.71,0.32,9.82,2298
16:37:15.265,23490,-0.64,-0.66,0.27,9.62,2299
16:37:15.276,23500,-0.74,-0.56,0.26,9.60,2300
16:37:15.288,23510,-0.81,-0.49,0.21,9.69,2301
16:37:15.300,23520,-0.79,-0.27,0.05,8.39,2302
16:37:15.309,23530,-0.75,-0.04,-0.11,7.62,2303
16:37:15.315,23540,-0.84,0.14,-0.34,9.16,2304
16:37:15.325,23550,-0.91,0.23,-0.60,11.10,2305
16:37:15.335,23560,-1.05,0.28,-0.87,13.91,2306
16:37:15.347,23570,-0.93,0.20,-0.79,12.36,2307
16:37:15.355,23580,-0.72,-0.05,-0.68,9.97,2308
16:37:15.365,23590,-0.57,-0.35,-0.50,8.34,2309
16:37:15.375,23600,-0.43,-0.58,-0.28,7.70,2310
16:37:15.385,23610,-0.27,-0.69,0.00,7.47,2311
16:37:15.393,23620,-0.25,-0.73,0.13,7.87,2312
16:37:15.406,23630,-0.43,-0.75,0.22,8.90,2313
16:37:15.415,23640,-0.77,-0.80,0.34,11.66,2314
16:37:15.425,23650,-1.21,-0.74,0.40,14.77,2315
16:37:15.436,23660,-1.83,-0.71,0.42,20.07,2316
16:37:15.448,23670,-2.13,-0.30,0.43,21.88,2317
16:37:15.456,23680,-2.13,0.20,0.42,21.76,2318
16:37:15.465,23690,-1.71,0.71,-0.08,18.54,2319
16:37:15.477,23700,-1.10,-0.10,-0.06,11.04,2320
16:37:15.485,23710,-0.74,-0.63,0.20,9.94,2321
16:37:15.495,23720,-0.53,-0.90,0.17,10.57,2322
16:37:15.504,23730,-0.44,-1.21,-0.02,12.93,2323
16:37:15.521,23740,-0.20,-1.03,0.41,11.30,2324
16:37:15.525,23750,-0.29,-0.98,0.43,11.06,2325
16:37:15.535,23760,-0.41,-0.76,0.48,9.85,2326
16:37:15.550,23770,-0.58,-0.63,0.49,9.91,2327
16:37:15.555,23780,-0.85,-0.55,0.48,11.17,2328
16:37:15.572,23790,-0.96,-0.70,0.40,12.53,2329
16:37:15.574,23800,-0.81,-0.86,0.32,12.25,2330
16:37:15.585,23810,-0.63,-0.91,0.25,11.36,2331
16:37:15.599,23820,-0.59,-0.90,0.17,10.91,2332
16:37:15.605,23830,-0.60,-0.85,0.10,10.52,2333
16:37:15.615,23840,-0.66,-0.83,0.09,10.65,2334
16:37:15.626,23850,-0.66,-0.76,0.13,10.19,2335
16:37:15.635,23860,-0.70,-0.70,0.18,10.06,2336
16:37:15.652,23870,-0.73,-0.72,0.19,10.41,2337
16:37:15.654,23880,-0.77,-0.73,0.22,10.79,2338
16:37:15.664,23890,-0.79,-0.70,0.23,10.82,2339
16:37:15.705,23900,-0.80,-0.66,0.21,10.54,2340
16:37:15.705,23910,-0.81,-0.62,0.19,10.37,2341
16:37:15.707,23920,-0.81,-0.62,0.19,10.33,2342
16:37:15.708,23930,-0.80,-0.61,0.15,10.14,2343
16:37:15.746,23940,-0.81,-0.63,0.11,10.29,2344
16:37:15.747,23950,-0.77,-0.67,0.09,10.23,2345
16:37:15.749,23960,-0.72,-0.73,0.06,10.20,2346
16:37:15.749,23970,-0.69,-0.74,0.01,10.11,2347
16:37:15.787,23980,-0.68,-0.76,-0.05,10.25,2348
16:37:15.788,23990,-0.70,-0.74,-0.08,10.21,2349
16:37:15.790,24000,-0.78,-0.66,-0.06,10.26,2350
16:37:15.790,24010,-0.90,-0.53,0.01,10.43,2351
16:37:15.829,24020,-0.98,-0.44,0.06,10.75,2352
16:37:15.829,24030,-0.97,-0.41,0.11,10.59,2353
16:37:15.831,24040,-0.88,-0.49,0.10,10.08,2354
16:37:15.832,24050,-0.83,-0.50,0.09,9.72,2355
16:37:15.870,24060,-0.87,-0.50,0.12,10.08,2356
16:37:15.871,24070,-0.84,-0.57,0.15,10.30,2357
16:37:15.874,24080,-0.79,-0.63,0.14,10.22,2358
16:37:15.874,24090,-0.76,-0.66,0.14,10.18,2359
16:37:15.874,24100,-0.80,-0.65,0.14,10.35,2360
16:37:15.897,24110,-0.84,-0.60,0.14,10.43,2361
16:37:15.897,24120,-0.86,-0.57,0.07,10.35,2362
16:37:15.907,24130,-0.94,-0.48,0.03,10.56,2363
16:37:15.915,24140,-0.92,-0.49,-0.07,10.46,2364
16:37:15.926,24150,-0.90,-0.53,-0.06,10.44,2365
16:37:15.935,24160,-0.91,-0.54,-0.07,10.63,2366
16:37:15.946,24170,-0.91,-0.56,-0.04,10.68,2367
16:37:15.954,24180,-0.96,-0.53,-0.01,10.96,2368
16:37:15.977,24190,-1.00,-0.48,0.02,11.10,2369
16:37:15.978,24200,-0.95,-0.53,-0.00,10.87,2370
16:37:15.994,24210,-0.86,-0.60,-0.08,10.48,2371
16:37:15.997,24220,-0.84,-0.62,-0.12,10.52,2372
16:37:16.016,24230,-0.86,-0.63,-0.12,10.74,2373
16:37:16.025,24240,-0.95,-0.63,-0.08,11.44,2374
16:37:16.026,24250,-1.04,-0.64,-0.02,12.22,2375
16:37:16.038,24260,-1.19,-0.62,0.03,13.37,2376
16:37:16.047,24270,-1.33,-0.54,0.06,14.38,2377
16:37:16.059,24280,-1.43,-0.46,0.07,15.07,2378
16:37:16.067,24290,-1.62,-0.34,0.04,16.51,2379
16:37:16.081,24300,-1.67,-0.27,-0.19,17.02,2380
16:37:16.098,24310,-1.92,-0.35,-0.35,19.82,2381
16:37:16.098,24320,-1.62,-0.55,-0.22,17.27,2382
16:37:16.109,24330,-1.36,-0.74,-0.06,15.46,2383
16:37:16.116,24340,-1.05,-0.93,0.07,14.03,2384
16:37:16.127,24350,-0.85,-1.16,0.14,14.47,2385
16:37:16.142,24360,-0.64,-1.18,0.38,13.96,2386
16:37:16.145,24370,-0.59,-1.25,0.46,14.57,2387
16:37:16.183,24380,-0.57,-1.24,0.61,14.95,2388
16:37:16.184,24390,-0.60,-1.12,0.86,15.37,2389
16:37:16.185,24400,-0.47,-1.00,1.17,16.09,2390
16:37:16.187,24410,-0.36,-0.92,1.32,16.46,2391
16:37:16.195,24420,-0.23,-0.87,1.34,16.10,2392
16:37:16.212,24430,-0.24,-0.60,1.05,12.33,2393
16:37:16.216,24440,-0.33,-0.40,0.73,8.94,2394
16:37:16.225,24450,-0.37,-0.42,0.64,8.47,2395
16:37:16.234,24460,-0.36,-0.62,0.72,10.16,2396
16:37:16.245,24470,-0.36,-0.77,0.65,10.66,2397
16:37:16.257,24480,-0.24,-0.90,0.66,11.42,2398
16:37:16.267,24490,-0.07,-0.83,0.65,10.61,2399
16:37:16.277,24500,0.09,-0.77,0.56,9.58,2400
16:37:16.287,24510,0.15,-0.62,0.57,8.54,2401
16:37:16.297,24520,0.05,-0.53,0.63,8.22,2402
16:37:16.312,24530,-0.09,-0.45,0.67,8.13,2403
16:37:16.314,24540,-0.23,-0.41,0.71,8.50,2404
16:37:16.324,24550,-0.26,-0.39,0.79,9.18,2405
16:37:16.335,24560,-0.17,-0.38,0.81,9.11,2406
16:37:16.344,24570,-0.08,-0.43,0.75,8.66,2407
16:37:16.388,24580,0.02,-0.44,0.70,8.30,2408
16:37:16.389,24590,-0.02,-0.39,0.55,6.77,2409
16:37:16.391,24600,-0.15,-0.32,0.43,5.55,2410
16:37:16.391,24610,-0.29,-0.30,0.46,6.20,2411
16:37:16.429,24620,-0.36,-0.36,0.59,7.77,2412
16:37:16.430,24630,-0.36,-0.39,0.62,8.22,2413
16:37:16.431,24640,-0.35,-0.40,0.61,8.11,2414
16:37:16.433,24650,-0.49,-0.50,0.61,9.26,2415
16:37:16.434,24660,-0.64,-0.64,0.54,10.51,2416
16:37:16.467,24670,-0.69,-0.68,0.35,10.27,2417
16:37:16.468,24680,-0.64,-0.66,0.28,9.66,2418
16:37:16.469,24690,-0.67,-0.59,0.23,9.21,2419
16:37:16.508,24700,-0.70,-0.54,0.29,9.28,2420
16:37:16.509,24710,-0.76,-0.57,0.28,9.92,2421
16:37:16.510,24720,-0.65,-0.51,0.30,8.78,2422
16:37:16.512,24730,-0.62,-0.31,0.01,6.93,2423
16:37:16.540,24740,-0.71,0.04,-0.46,8.44,2424
16:37:16.541,24750,-0.85,0.36,-0.98,13.44,2425
16:37:16.547,24760,-0.81,0.42,-1.07,14.07,2426
16:37:16.547,24770,-0.81,0.19,-0.85,11.92,2427
16:37:16.582,24780,-0.65,-0.11,-0.56,8.62,2428
16:37:16.582,24790,-0.47,-0.50,-0.34,7.63,2429
16:37:16.584,24800,-0.15,-0.63,0.02,6.48,2430
16:37:16.585,24810,-0.10,-0.77,0.17,7.97,2431
16:37:16.596,24820,-0.45,-0.89,0.20,10.13,2432
16:37:16.605,24830,-0.82,-0.93,0.27,12.66,2433
16:37:16.622,24840,-1.44,-0.81,0.31,16.80,2434
16:37:16.624,24850,-2.13,-0.64,0.36,22.50,2435
16:37:16.634,24860,-2.13,-0.17,0.27,21.48,2436
16:37:16.644,24870,-2.13,0.41,0.00,21.64,2437
16:37:16.655,24880,-1.63,0.71,-0.20,17.91,2438
16:37:16.665,24890,-1.01,-0.30,-0.07,10.57,2439
16:37:16.674,24900,-0.65,-0.54,0.33,9.02,2440
16:37:16.684,24910,-0.54,-0.97,0.14,11.14,2441
16:37:16.694,24920,-0.32,-1.06,0.35,11.65,2442
16:37:16.704,24930,-0.22,-1.13,0.39,12.14,2443
16:37:16.714,24940,-0.19,-1.25,0.36,13.11,2444
16:37:16.724,24950,-0.22,-0.83,0.55,10.14,2445
16:37:16.734,24960,-0.56,-0.61,0.55,9.95,2446
16:37:16.752,24970,-0.98,-0.50,0.51,12.10,2447
16:37:16.755,24980,-1.14,-0.47,0.45,13.17,2448
16:37:16.766,24990,-1.02,-0.66,0.30,12.54,2449
16:37:16.776,25000,-0.75,-0.80,0.21,11.19,2450
16:37:16.784,25010,-0.60,-0.92,0.10,11.03,2451
16:37:16.801,25020,-0.49,-0.91,0.11,10.39,2452
16:37:16.805,25030,-0.50,-0.95,0.03,10.75,2453
16:37:16.815,25040,-0.58,-0.86,0.14,10.50,2454
16:37:16.826,25050,-0.62,-0.88,0.21,10.96,2455
16:37:16.834,25060,-0.65,-0.84,0.24,10.89,2456
16:37:16.850,25070,-0.72,-0.79,0.22,10.91,2457
16:37:16.855,25080,-0.82,-0.68,0.22,10.90,2458
16:37:16.871,25090,-0.91,-0.53,0.22,10.76,2459
16:37:16.875,25100,-0.97,-0.42,0.25,10.89,2460
16:37:16.889,25110,-0.98,-0.35,0.28,10.76,2461
16:37:16.894,25120,-0.90,-0.41,0.20,10.10,2462
16:37:16.908,25130,-0.82,-0.57,0.12,10.02,2463
16:37:16.914,25140,-0.74,-0.72,0.09,10.32,2464
16:37:16.929,25150,-0.68,-0.80,0.08,10.49,2465
16:37:16.934,25160,-0.66,-0.79,0.06,10.35,2466
16:37:16.945,25170,-0.71,-0.73,0.07,10.15,2467
16:37:16.954,25180,-0.80,-0.59,0.08,9.95,2468
16:37:16.964,25190,-0.87,-0.50,0.09,10.04,2469
16:37:16.974,25200,-0.91,-0.46,0.09,10.27,2470
16:37:16.988,25210,-0.91,-0.49,0.10,10.34,2471
16:37:16.994,25220,-0.87,-0.58,0.10,10.49,2472
16:37:17.006,25230,-0.83,-0.61,0.11,10.38,2473
16:37:17.014,25240,-0.81,-0.62,0.10,10.29,2474
16:37:17.024,25250,-0.80,-0.62,0.10,10.19,2475
16:37:17.039,25260,-0.77,-0.64,0.10,10.04,2476
16:37:17.045,25270,-0.75,-0.62,0.10,9.80,2477
16:37:17.056,25280,-0.76,-0.62,0.08,9.87,2478
16:37:17.064,25290,-0.80,-0.63,0.07,10.17,2479
16:37:17.079,25300,-0.84,-0.61,0.08,10.41,2480
16:37:17.084,25310,-0.89,-0.61,0.08,10.80,2481
16:37:17.141,25320,-0.89,-0.52,0.06,10.33,2482
16:37:17.141,25330,-0.87,-0.51,-0.01,10.14,2483
16:37:17.143,25340,-0.89,-0.52,-0.04,10.28,2484
16:37:17.144,25350,-0.93,-0.49,-0.07,10.54,2485
16:37:17.146,25360,-0.93,-0.52,-0.11,10.69,2486
16:37:17.181,25370,-0.88,-0.58,-0.12,10.56,2487
16:37:17.183,25380,-0.85,-0.61,-0.09,10.49,2488
16:37:17.184,25390,-0.87,-0.62,-0.05,10.67,2489
16:37:17.185,25400,-0.91,-0.58,-0.02,10.80,2490
16:37:17.186,25410,-0.92,-0.54,0.03,10.62,2491
16:37:17.219,25420,-0.87,-0.55,0.02,10.32,2492
16:37:17.220,25430,-0.83,-0.61,0.01,10.31,2493
16:37:17.221,25440,-0.89,-0.64,0.02,10.98,2494
16:37:17.225,25450,-0.97,-0.64,0.07,11.61,2495
16:37:17.260,25460,-1.04,-0.62,0.10,12.15,2496
16:37:17.261,25470,-1.10,-0.60,0.09,12.52,2497
16:37:17.262,25480,-1.18,-0.55,0.08,13.06,2498
16:37:17.264,25490,-1.26,-0.46,0.04,13.47,2499
16:37:17.359,25500,-1.34,-0.38,0.03,13.90,2500
16:37:17.360,25510,-1.42,-0.34,0.05,14.65,2501
16:37:17.362,25520,-1.57,-0.31,-0.08,16.02,2502
16:37:17.363,25530,-1.76,-0.31,-0.27,18.10,2503
16:37:17.364,25540,-1.76,-0.38,-0.25,18.14,2504
16:37:17.368,25550,-1.49,-0.57,-0.15,16.04,2505
16:37:17.370,25560,-1.18,-0.81,0.00,14.31,2506
16:37:17.370,25570,-0.91,-1.01,0.14,13.71,2507
16:37:17.370,25580,-0.74,-1.16,0.38,14.31,2508
16:37:17.370,25590,-0.63,-1.24,0.51,14.82,2509
16:37:17.391,25600,-0.55,-1.30,0.56,15.19,2510
16:37:17.393,25610,-0.49,-1.15,0.77,14.71,2511
16:37:17.425,25620,-0.49,-0.97,1.12,15.60,2512
16:37:17.426,25630,-0.36,-0.93,1.20,15.59,2513
16:37:17.427,25640,-0.28,-0.93,1.33,16.45,2514
16:37:17.464,25650,-0.19,-0.65,1.20,13.80,2515
16:37:17.465,25660,-0.22,-0.35,0.89,9.80,2516
16:37:17.466,25670,-0.24,-0.20,0.67,7.37,2517
16:37:17.468,25680,-0.25,-0.33,0.71,8.24,2518
16:37:17.469,25690,-0.28,-0.59,0.73,9.81,2519
16:37:17.475,25700,-0.26,-0.82,0.64,10.72,2520
16:37:17.484,25710,-0.09,-0.87,0.60,10.60,2521
16:37:17.494,25720,0.08,-0.85,0.57,10.29,2522
16:37:17.504,25730,0.20,-0.77,0.49,9.30,2523
16:37:17.514,25740,0.23,-0.62,0.53,8.49,2524
16:37:17.524,25750,-0.02,-0.47,0.54,7.17,2525
16:37:17.534,25760,-0.15,-0.37,0.57,6.99,2526
16:37:17.547,25770,-0.27,-0.36,0.65,7.91,2527
16:37:17.555,25780,-0.29,-0.36,0.73,8.64,2528
16:37:17.565,25790,-0.18,-0.33,0.79,8.71,2529
16:37:17.574,25800,-0.13,-0.38,0.70,8.08,2530
16:37:17.585,25810,-0.17,-0.39,0.63,7.57,2531
16:37:17.594,25820,-0.31,-0.37,0.64,8.03,2532
16:37:17.604,25830,-0.47,-0.33,0.67,8.84,2533
16:37:17.614,25840,-0.52,-0.31,0.66,8.94,2534
16:37:17.624,25850,-0.46,-0.34,0.61,8.34,2535
16:37:17.640,25860,-0.41,-0.40,0.59,8.18,2536
16:37:17.645,25870,-0.38,-0.39,0.51,7.44,2537
16:37:17.655,25880,-0.41,-0.42,0.40,7.14,2538
16:37:17.673,25890,-0.40,-0.67,0.43,8.92,2539
16:37:17.674,25900,-0.50,-0.83,0.42,10.57,2540
16:37:17.685,25910,-0.53,-0.87,0.44,11.09,2541
16:37:17.699,25920,-0.55,-0.83,0.35,10.53,2542
16:37:17.704,25930,-0.55,-0.65,0.29,8.99,2543
16:37:17.714,25940,-0.74,-0.55,0.26,9.56,2544
16:37:17.727,25950,-0.83,-0.41,0.28,9.63,2545
16:37:17.743,25960,-0.82,-0.22,0.20,8.75,2546
16:37:17.744,25970,-0.82,-0.00,0.05,8.22,2547
16:37:17.758,25980,-0.91,0.19,-0.11,9.33,2548
16:37:17.764,25990,-0.99,0.26,-0.29,10.63,2549
16:37:17.778,26000,-1.05,0.23,-0.46,11.64,2550
16:37:17.784,26010,-1.00,0.04,-0.65,11.91,2551
16:37:17.799,26020,-0.80,-0.11,-0.67,10.46,2552
16:37:17.804,26030,-0.69,-0.27,-0.54,9.15,2553
16:37:17.855,26040,-0.60,-0.37,-0.36,7.92,2554
16:37:17.857,26050,-0.51,-0.47,-0.19,7.20,2555
16:37:17.858,26060,-0.45,-0.58,-0.05,7.31,2556
16:37:17.859,26070,-0.41,-0.55,0.13,6.99,2557
16:37:17.860,26080,-0.52,-0.58,0.22,8.07,2558
16:37:17.897,26090,-0.91,-0.65,0.31,11.58,2559
16:37:17.897,26100,-1.18,-0.70,0.33,14.09,2560
16:37:17.899,26110,-1.77,-0.67,0.32,19.18,2561
16:37:17.900,26120,-2.00,-0.26,0.26,20.30,2562
16:37:17.938,26130,-1.93,0.12,0.07,19.36,2563
16:37:17.939,26140,-1.58,0.41,-0.14,16.34,2564
16:37:17.940,26150,-1.31,-0.05,-0.19,13.21,2565
16:37:17.941,26160,-0.99,-0.66,0.05,11.91,2566
16:37:17.979,26170,-0.75,-0.85,-0.04,11.37,2567
16:37:17.981,26180,-0.65,-0.82,0.00,10.49,2568
16:37:17.982,26190,-0.45,-0.86,0.38,10.42,2569
16:37:17.983,26200,-0.52,-0.89,0.36,10.89,2570
16:37:17.984,26210,-0.39,-0.75,0.48,9.70,2571
16:37:18.016,26220,-0.45,-0.69,0.56,9.97,2572
16:37:18.017,26230,-0.57,-0.60,0.52,9.77,2573
16:37:18.019,26240,-0.85,-0.57,0.44,11.15,2574
16:37:18.044,26250,-0.87,-0.75,0.39,12.14,2575
16:37:18.045,26260,-0.80,-0.91,0.30,12.51,2576
16:37:18.046,26270,-0.68,-0.98,0.19,12.12,2577
16:37:18.060,26280,-0.64,-0.89,0.16,11.04,2578
16:37:18.065,26290,-0.63,-0.78,0.06,10.04,2579
16:37:18.075,26300,-0.70,-0.71,0.09,10.02,2580
16:37:18.090,26310,-0.75,-0.61,0.11,9.78,2581
16:37:18.095,26320,-0.82,-0.56,0.14,10.00,2582
16:37:18.106,26330,-0.84,-0.58,0.19,10.38,2583
16:37:18.117,26340,-0.81,-0.64,0.20,10.49,2584
16:37:18.126,26350,-0.79,-0.70,0.17,10.70,2585
16:37:18.136,26360,-0.78,-0.72,0.14,10.65,2586
16:37:18.146,26370,-0.80,-0.66,0.12,10.41,2587
16:37:18.156,26380,-0.83,-0.60,0.12,10.34,2588
16:37:18.165,26390,-0.87,-0.53,0.12,10.25,2589
16:37:18.180,26400,-0.89,-0.51,0.11,10.30,2590
16:37:18.185,26410,-0.87,-0.57,0.07,10.43,2591
16:37:18.199,26420,-0.82,-0.63,0.03,10.35,2592
16:37:18.204,26430,-0.77,-0.69,0.03,10.36,2593
16:37:18.219,26440,-0.74,-0.70,0.05,10.22,2594
16:37:18.224,26450,-0.77,-0.66,0.07,10.11,2595
16:37:18.234,26460,-0.78,-0.62,0.09,9.97,2596
16:37:18.244,26470,-0.81,-0.58,0.08,9.97,2597
16:37:18.255,26480,-0.87,-0.55,0.07,10.35,2598
16:37:18.271,26490,-0.90,-0.54,0.05,10.54,2599
16:37:18.275,26500,-0.87,-0.58,0.02,10.47,2600
16:37:18.290,26510,-0.85,-0.58,-0.00,10.31,2601
16:37:18.296,26520,-0.89,-0.55,0.01,10.50,2602
16:37:18.306,26530,-0.89,-0.54,0.03,10.41,2603
16:37:18.314,26540,-0.85,-0.55,-0.02,10.10,2604
16:37:18.326,26550,-0.81,-0.58,-0.09,10.01,2605
16:37:18.341,26560,-0.78,-0.61,-0.11,10.00,2606
16:37:18.346,26570,-0.83,-0.59,-0.04,10.25,2607
16:37:18.361,26580,-0.84,-0.64,0.01,10.62,2608
16:37:18.366,26590,-0.83,-0.62,0.07,10.42,2609
16:37:18.382,26600,-0.86,-0.52,0.08,10.07,2610
16:37:18.385,26610,-0.86,-0.48,0.09,9.88,2611
16:37:18.394,26620,-0.86,-0.48,0.12,9.96,2612
16:37:18.405,26630,-0.82,-0.55,0.09,9.95,2613
16:37:18.414,26640,-0.80,-0.61,0.05,10.11,2614
16:37:18.425,26650,-0.83,-0.62,0.07,10.39,2615
16:37:18.438,26660,-0.84,-0.62,0.09,10.52,2616
16:37:18.447,26670,-0.80,-0.65,0.06,10.37,2617
16:37:18.456,26680,-0.79,-0.66,0.02,10.29,2618
16:37:18.466,26690,-0.80,-0.63,0.02,10.18,2619
16:37:18.476,26700,-0.82,-0.60,-0.03,10.14,2620
16:37:18.485,26710,-0.86,-0.58,-0.03,10.39,2621
16:37:18.495,26720,-0.97,-0.53,-0.01,11.03,2622
16:37:18.506,26730,-1.05,-0.51,0.02,11.65,2623
16:37:18.534,26740,-1.10,-0.47,0.02,11.97,2624
16:37:18.534,26750,-1.20,-0.49,-0.03,13.00,2625
16:37:18.535,26760,-1.26,-0.51,-0.04,13.59,2626
16:37:18.575,26770,-1.33,-0.51,-0.05,14.25,2627
16:37:18.575,26780,-1.39,-0.50,-0.13,14.84,2628
16:37:18.577,26790,-1.53,-0.53,-0.24,16.37,2629
16:37:18.578,26800,-1.63,-0.54,-0.33,17.47,2630
16:37:18.610,26810,-1.59,-0.56,-0.30,17.11,2631
16:37:18.610,26820,-1.41,-0.74,-0.18,16.04,2632
16:37:18.611,26830,-1.19,-0.93,0.05,15.16,2633
16:37:18.655,26840,-1.00,-1.12,0.22,15.16,2634
16:37:18.690,26850,-0.86,-1.14,0.30,14.58,2635
16:37:18.690,26860,-0.77,-1.15,0.39,14.40,2636
16:37:18.691,26870,-0.74,-1.13,0.63,14.91,2637
16:37:18.693,26880,-0.74,-1.08,0.84,15.56,2638
16:37:18.695,26890,-0.62,-0.91,1.04,15.16,2639
16:37:18.734,26900,-0.42,-0.90,1.19,15.45,2640
16:37:18.734,26910,-0.15,-0.97,1.36,16.72,2641
16:37:18.734,26920,-0.10,-0.95,1.17,15.14,2642
16:37:18.807,26930,-0.13,-0.76,0.85,11.46,2643
16:37:18.807,26940,-0.26,-0.70,0.54,9.19,2644
16:37:18.808,26950,-0.38,-0.81,0.61,10.81,2645
16:37:18.809,26960,-0.36,-0.93,0.70,12.19,2646
16:37:18.810,26970,-0.25,-1.03,0.68,12.58,2647
16:37:18.812,26980,-0.02,-0.97,0.70,11.97,2648
16:37:18.812,26990,0.14,-0.84,0.64,10.66,2649
16:37:18.814,27000,0.17,-0.66,0.59,9.01,2650
16:37:18.815,27010,0.05,-0.56,0.60,8.26,2651
16:37:18.816,27020,-0.04,-0.46,0.70,8.36,2652
16:37:18.816,27030,-0.09,-0.43,0.77,8.86,2653
16:37:18.819,27040,-0.12,-0.34,0.83,9.04,2654
16:37:18.824,27050,-0.07,-0.26,0.85,8.97,2655
16:37:18.841,27060,-0.07,-0.19,0.80,8.24,2656
16:37:18.846,27070,-0.11,-0.17,0.70,7.28,2657
16:37:18.854,27080,-0.13,-0.19,0.74,7.73,2658
16:37:18.869,27090,-0.15,-0.23,0.82,8.66,2659
16:37:18.874,27100,-0.15,-0.36,0.84,9.28,2660
16:37:18.889,27110,-0.12,-0.47,0.79,9.26,2661
16:37:18.895,27120,-0.14,-0.49,0.57,7.70,2662
16:37:18.905,27130,-0.17,-0.53,0.46,7.17,2663
16:37:18.918,27140,-0.14,-0.66,0.37,7.66,2664
16:37:18.929,27150,-0.08,-0.65,0.23,6.92,2665
16:37:18.935,27160,-0.13,-0.79,0.23,8.32,2666
16:37:18.949,27170,-0.46,-0.79,0.25,9.49,2667
16:37:18.956,27180,-0.66,-0.67,0.25,9.77,2668
16:37:18.966,27190,-0.79,-0.58,0.31,10.24,2669
16:37:18.979,27200,-0.72,-0.46,0.41,9.47,2670
16:37:18.985,27210,-0.63,-0.46,0.39,8.76,2671
16:37:18.994,27220,-0.54,-0.49,0.53,9.02,2672
16:37:19.008,27230,-0.65,-0.43,0.32,8.43,2673
16:37:19.016,27240,-0.71,-0.05,-0.06,7.19,2674
16:37:19.032,27250,-0.91,0.29,-0.45,10.52,2675
16:37:19.035,27260,-0.99,0.40,-0.57,12.14,2676
16:37:19.044,27270,-1.02,0.37,-0.57,12.25,2677
16:37:19.057,27280,-0.88,0.10,-0.56,10.49,2678
16:37:19.066,27290,-0.63,-0.14,-0.48,8.06,2679
16:37:19.075,27300,-0.47,-0.41,-0.38,7.31,2680
16:37:19.085,27310,-0.30,-0.48,-0.06,5.75,2681
16:37:19.099,27320,-0.28,-0.61,0.05,6.72,2682
16:37:19.106,27330,-0.64,-0.74,0.06,9.86,2683
16:37:19.116,27340,-0.92,-0.85,0.13,12.63,2684
16:37:19.128,27350,-1.44,-1.04,0.21,17.85,2685
16:37:19.136,27360,-2.08,-0.79,0.27,22.42,2686
16:37:19.153,27370,-2.13,-0.24,0.17,21.45,2687
16:37:19.155,27380,-1.91,0.38,-0.22,19.61,2688
16:37:19.173,27390,-1.28,0.25,-0.32,13.38,2689
16:37:19.175,27400,-0.81,-0.47,-0.24,9.69,2690
16:37:19.187,27410,-0.76,-0.58,0.41,10.43,2691
16:37:19.194,27420,-0.82,-0.78,0.32,11.73,2692
16:37:19.205,27430,-0.53,-0.85,0.46,11.05,2693
16:37:19.216,27440,-0.15,-0.86,0.63,10.73,2694
16:37:19.226,27450,-0.19,-1.00,0.61,11.89,2695
16:37:19.239,27460,-0.32,-0.77,0.51,9.81,2696
16:37:19.245,27470,-0.55,-0.68,0.45,9.79,2697
16:37:19.256,27480,-0.81,-0.75,0.32,11.47,2698
16:37:19.308,27490,-0.89,-0.90,0.21,12.84,2699
16:37:19.308,27500,-0.84,-1.00,0.15,13.21,2700
16:37:19.309,27510,-0.64,-1.00,0.11,11.97,2701
16:37:19.310,27520,-0.51,-1.06,-0.04,11.77,2702
16:37:19.312,27530,-0.42,-1.01,-0.10,11.02,2703
16:37:19.351,27540,-0.47,-0.81,0.02,9.40,2704
16:37:19.351,27550,-0.59,-0.74,0.19,9.66,2705
16:37:19.351,27560,-0.70,-0.67,0.27,10.04,2706
16:37:19.352,27570,-0.84,-0.58,0.34,10.75,2707
16:37:19.391,27580,-0.96,-0.53,0.36,11.50,2708
16:37:19.392,27590,-1.03,-0.42,0.36,11.69,2709
16:37:19.393,27600,-1.01,-0.34,0.32,11.15,2710
16:37:19.394,27610,-0.90,-0.40,0.24,10.16,2711
16:37:19.396,27620,-0.82,-0.53,0.17,9.95,2712
16:37:19.432,27630,-0.74,-0.65,0.12,9.95,2713
16:37:19.433,27640,-0.67,-0.76,0.05,10.10,2714
16:37:19.434,27650,-0.66,-0.79,0.05,10.33,2715
16:37:19.435,27660,-0.63,-0.77,0.09,10.00,2716
16:37:19.473,27670,-0.68,-0.74,0.15,10.15,2717
16:37:19.474,27680,-0.74,-0.60,0.21,9.70,2718
16:37:19.475,27690,-0.82,-0.50,0.17,9.73,2719
16:37:19.476,27700,-0.87,-0.48,0.15,9.99,2720
16:37:19.489,27710,-0.82,-0.56,0.16,10.08,2721
16:37:19.498,27720,-0.80,-0.62,0.17,10.30,2722
16:37:19.508,27730,-0.77,-0.67,0.21,10.41,2723
16:37:19.521,27740,-0.75,-0.67,0.19,10.20,2724
16:37:19.525,27750,-0.75,-0.64,0.17,10.06,2725
16:37:19.534,27760,-0.77,-0.64,0.22,10.20,2726
16:37:19.545,27770,-0.79,-0.63,0.23,10.40,2727
16:37:19.554,27780,-0.80,-0.63,0.24,10.42,2728
16:37:19.565,27790,-0.79,-0.62,0.20,10.27,2729
16:37:19.579,27800,-0.80,-0.61,0.19,10.29,2730
16:37:19.589,27810,-0.83,-0.62,0.19,10.51,2731
16:37:19.598,27820,-0.86,-0.60,0.19,10.70,2732
16:37:19.604,27830,-0.87,-0.57,0.15,10.53,2733
16:37:19.614,27840,-0.88,-0.52,0.06,10.22,2734
16:37:19.625,27850,-0.85,-0.52,-0.04,9.95,2735
16:37:19.643,27860,-0.84,-0.55,-0.08,10.11,2736
16:37:19.646,27870,-0.83,-0.60,-0.11,10.30,2737
16:37:19.654,27880,-0.87,-0.61,-0.12,10.70,2738
16:37:19.668,27890,-0.91,-0.62,-0.11,11.03,2739
16:37:19.676,27900,-0.97,-0.55,-0.06,11.13,2740
16:37:19.686,27910,-1.00,-0.48,-0.04,11.05,2741
16:37:19.697,27920,-0.91,-0.52,-0.06,10.50,2742
16:37:19.709,27930,-0.88,-0.57,-0.08,10.50,2743
16:37:19.717,27940,-0.92,-0.59,-0.05,10.94,2744
16:37:19.726,27950,-0.98,-0.59,-0.00,11.46,2745
16:37:19.735,27960,-1.07,-0.57,0.03,12.08,2746
16:37:19.746,27970,-1.16,-0.49,0.07,12.65,2747
16:37:19.759,27980,-1.24,-0.45,0.08,13.22,2748
16:37:19.765,27990,-1.33,-0.39,0.08,13.86,2749
16:37:19.776,28000,-1.40,-0.32,0.09,14.38,2750
16:37:19.785,28010,-1.49,-0.25,0.18,15.21,2751
16:37:19.801,28020,-1.55,-0.23,0.17,15.72,2752
16:37:19.804,28030,-1.67,-0.20,0.23,17.00,2753
16:37:19.818,28040,-1.75,-0.24,0.09,17.71,2754
16:37:19.829,28050,-1.49,-0.53,0.02,15.83,2755
16:37:19.838,28060,-1.15,-0.80,-0.01,14.05,2756
16:37:19.845,28070,-0.81,-1.07,0.13,13.47,2757
16:37:19.863,28080,-0.61,-1.32,0.22,14.74,2758
16:37:19.866,28090,-0.50,-1.43,0.39,15.60,2759
16:37:19.875,28100,-0.47,-1.41,0.56,15.86,2760
16:37:19.885,28110,-0.48,-1.30,0.79,16.00,2761
16:37:19.895,28120,-0.48,-1.09,0.96,15.28,2762
16:37:19.905,28130,-0.29,-0.97,1.12,15.07,2763
16:37:19.928,28140,-0.31,-0.79,1.08,13.72,2764
16:37:19.929,28150,-0.29,-0.55,0.94,11.26,2765
16:37:19.941,28160,-0.31,-0.35,0.80,9.29,2766
16:37:19.945,28170,-0.42,-0.26,0.72,8.76,2767
16:37:20.014,28180,-0.52,-0.41,0.74,9.93,2768
16:37:20.015,28190,-0.41,-0.60,0.69,10.04,2769
16:37:20.015,28200,-0.30,-0.75,0.64,10.36,2770
16:37:20.018,28210,-0.11,-0.79,0.65,10.32,2771
16:37:20.018,28220,0.08,-0.80,0.61,10.07,2772
16:37:20.054,28230,0.18,-0.74,0.57,9.45,2773
16:37:20.172,28240,0.14,-0.62,0.59,8.69,2774
16:37:20.173,28250,-0.04,-0.55,0.64,8.43,2775
16:37:20.173,28260,-0.20,-0.44,0.67,8.23,2776
16:37:20.173,28270,-0.28,-0.40,0.66,8.19,2777
16:37:20.173,28280,-0.21,-0.41,0.72,8.57,2778
16:37:20.173,28290,-0.06,-0.50,0.67,8.40,2779
16:37:20.175,28300,0.03,-0.53,0.60,7.99,2780
16:37:20.175,28310,0.02,-0.55,0.60,8.18,2781
16:37:20.177,28320,-0.15,-0.51,0.62,8.17,2782
16:37:20.198,28330,-0.30,-0.45,0.67,8.61,2783
16:37:20.200,28340,-0.38,-0.40,0.67,8.67,2784
16:37:20.200,28350,-0.43,-0.29,0.53,7.39,2785
16:37:20.200,28360,-0.43,-0.16,0.42,6.22,2786
16:37:20.200,28370,-0.48,-0.20,0.57,7.67,2787
16:37:20.200,28380,-0.56,-0.37,0.70,9.72,2788
16:37:20.200,28390,-0.71,-0.54,0.57,10.58,2789
16:37:20.200,28400,-0.66,-0.67,0.49,10.61,2790
16:37:20.201,28410,-0.65,-0.76,0.37,10.64,2791
16:37:20.202,28420,-0.59,-0.82,0.29,10.52,2792
16:37:20.204,28430,-0.57,-0.74,0.25,9.69,2793
16:37:20.215,28440,-0.69,-0.58,0.27,9.42,2794
16:37:20.231,28450,-0.78,-0.43,0.23,9.19,2795
16:37:20.235,28460,-0.90,-0.23,0.11,9.37,2796
16:37:20.251,28470,-0.92,0.05,-0.11,9.27,2797
16:37:20.257,28480,-0.91,0.16,-0.49,10.48,2798
16:37:20.264,28490,-0.89,0.18,-0.77,11.88,2799
16:37:20.278,28500,-0.88,0.07,-0.95,12.99,2800
16:37:20.285,28510,-0.81,0.01,-0.80,11.38,2801
16:37:20.302,28520,-0.72,-0.18,-0.66,9.95,2802
16:37:20.306,28530,-0.60,-0.37,-0.48,8.52,2803
16:37:20.321,28540,-0.48,-0.53,-0.27,7.65,2804
16:37:20.325,28550,-0.44,-0.66,-0.13,8.02,2805
16:37:20.334,28560,-0.40,-0.59,0.06,7.13,2806
16:37:20.345,28570,-0.43,-0.56,0.16,7.24,2807
16:37:20.362,28580,-0.49,-0.52,0.30,7.77,2808
16:37:20.367,28590,-0.64,-0.46,0.55,9.59,2809
16:37:20.376,28600,-1.13,-0.54,0.53,13.64,2810
16:37:20.393,28610,-1.50,-0.52,0.39,16.34,2811
16:37:20.396,28620,-2.10,-0.50,0.33,21.88,2812
16:37:20.405,28630,-2.13,-0.15,0.16,21.36,2813
16:37:20.414,28640,-1.81,0.15,-0.05,18.14,2814
16:37:20.430,28650,-1.50,-0.03,-0.32,15.30,2815
16:37:20.435,28660,-1.06,-0.64,-0.11,12.43,2816
16:37:20.447,28670,-0.86,-0.84,-0.02,12.03,2817
16:37:20.457,28680,-0.64,-0.83,0.09,10.49,2818
16:37:20.469,28690,-0.44,-0.61,0.55,9.27,2819
16:37:20.475,28700,-0.68,-0.44,0.51,9.58,2820
16:37:20.486,28710,-0.41,-0.43,0.65,8.83,2821
16:37:20.496,28720,-0.34,-0.43,0.74,9.21,2822
16:37:20.511,28730,-0.52,-0.56,0.50,9.13,2823
16:37:20.515,28740,-0.74,-0.68,0.35,10.69,2824
16:37:20.527,28750,-0.87,-0.94,0.26,13.12,2825
16:37:20.535,28760,-0.81,-1.18,0.17,14.42,2826
16:37:20.544,28770,-0.54,-1.21,0.17,13.34,2827
16:37:20.562,28780,-0.42,-1.19,0.12,12.71,2828
16:37:20.566,28790,-0.41,-1.09,0.05,11.63,2829
16:37:20.574,28800,-0.61,-0.78,0.07,9.91,2830
16:37:20.587,28810,-0.75,-0.66,0.16,10.08,2831
16:37:20.598,28820,-0.82,-0.60,0.19,10.34,2832
16:37:20.609,28830,-0.87,-0.57,0.25,10.69,2833
16:37:20.614,28840,-0.84,-0.62,0.28,10.84,2834
16:37:20.625,28850,-0.79,-0.68,0.25,10.70,2835
16:37:20.637,28860,-0.75,-0.70,0.23,10.51,2836
16:37:20.647,28870,-0.75,-0.70,0.24,10.51,2837
16:37:20.656,28880,-0.77,-0.67,0.25,10.52,2838
16:37:20.667,28890,-0.80,-0.62,0.25,10.44,2839
16:37:20.676,28900,-0.78,-0.62,0.20,10.16,2840
16:37:20.686,28910,-0.77,-0.63,0.15,10.06,2841
16:37:20.696,28920,-0.75,-0.66,0.10,10.03,2842
16:37:20.704,28930,-0.76,-0.66,0.06,10.07,2843
16:37:20.715,28940,-0.76,-0.66,-0.00,10.10,2844
16:37:20.725,28950,-0.78,-0.63,0.01,10.02,2845
16:37:20.737,28960,-0.83,-0.58,0.03,10.12,2846
16:37:20.747,28970,-0.86,-0.54,0.07,10.18,2847
16:37:20.756,28980,-0.87,-0.55,0.07,10.29,2848
16:37:20.766,28990,-0.81,-0.62,0.04,10.22,2849
16:37:20.776,29000,-0.77,-0.66,-0.01,10.14,2850
16:37:20.785,29010,-0.74,-0.71,-0.04,10.24,2851
16:37:20.825,29020,-0.71,-0.73,-0.00,10.18,2852
16:37:20.826,29030,-0.75,-0.67,0.06,10.10,2853
16:37:20.827,29040,-0.80,-0.60,0.13,10.06,2854
16:37:20.828,29050,-0.86,-0.52,0.17,10.21,2855
16:37:20.863,29060,-0.91,-0.46,0.20,10.41,2856
16:37:20.863,29070,-0.92,-0.48,0.19,10.48,2857
16:37:20.864,29080,-0.89,-0.51,0.14,10.35,2858
16:37:20.867,29090,-0.89,-0.55,0.07,10.47,2859
16:37:20.903,29100,-0.91,-0.56,-0.01,10.65,2860
16:37:20.904,29110,-0.89,-0.55,-0.03,10.46,2861
16:37:20.905,29120,-0.86,-0.53,-0.07,10.17,2862
16:37:20.907,29130,-0.86,-0.54,-0.11,10.19,2863
16:37:20.945,29140,-0.86,-0.57,-0.10,10.35,2864
16:37:20.945,29150,-0.86,-0.59,-0.05,10.42,2865
16:37:20.946,29160,-0.88,-0.61,-0.05,10.74,2866
16:37:20.948,29170,-0.94,-0.58,0.00,11.00,2867
16:37:20.986,29180,-0.94,-0.54,0.04,10.86,2868
16:37:20.987,29190,-0.87,-0.59,0.00,10.53,2869
16:37:20.988,29200,-0.78,-0.63,-0.03,10.00,2870
16:37:20.989,29210,-0.77,-0.65,-0.04,10.12,2871
16:37:21.016,29220,-0.82,-0.67,-0.00,10.62,2872
16:37:21.016,29230,-0.92,-0.63,0.04,11.15,2873
16:37:21.018,29240,-1.01,-0.58,0.09,11.66,2874
16:37:21.025,29250,-1.09,-0.53,0.09,12.15,2875
16:37:21.036,29260,-1.16,-0.48,0.06,12.57,2876
16:37:21.045,29270,-1.25,-0.43,0.03,13.18,2877
16:37:21.055,29280,-1.35,-0.38,0.00,14.00,2878
16:37:21.065,29290,-1.43,-0.36,0.01,14.75,2879
16:37:21.074,29300,-1.60,-0.36,-0.22,16.58,2880
16:37:21.090,29310,-1.66,-0.41,-0.26,17.33,2881
16:37:21.096,29320,-1.55,-0.47,-0.23,16.37,2882
16:37:21.106,29330,-1.38,-0.67,-0.12,15.40,2883
16:37:21.116,29340,-1.18,-0.86,-0.08,14.59,2884
16:37:21.125,29350,-0.97,-1.13,-0.11,14.90,2885
16:37:21.136,29360,-0.72,-1.08,0.25,13.24,2886
16:37:21.145,29370,-0.61,-1.20,0.39,13.98,2887
16:37:21.156,29380,-0.63,-1.21,0.55,14.70,2888
16:37:21.172,29390,-0.62,-1.11,0.78,14.90,2889
16:37:21.176,29400,-0.66,-1.02,0.93,15.30,2890
16:37:21.185,29410,-0.55,-0.98,1.03,15.26,2891
16:37:21.196,29420,-0.39,-0.94,1.25,16.11,2892
16:37:21.207,29430,-0.13,-0.82,1.29,15.31,2893
16:37:21.304,29440,-0.13,-0.57,1.03,11.86,2894
16:37:21.304,29450,-0.18,-0.36,0.76,8.61,2895
16:37:21.305,29460,-0.26,-0.38,0.64,7.86,2896
16:37:21.306,29470,-0.32,-0.56,0.70,9.50,2897
16:37:21.308,29480,-0.34,-0.72,0.62,10.10,2898
16:37:21.309,29490,-0.25,-0.89,0.59,11.03,2899
16:37:21.310,29500,-0.07,-0.94,0.61,11.28,2900
16:37:21.312,29510,0.11,-0.85,0.54,10.12,2901
16:37:21.313,29520,0.22,-0.73,0.51,9.20,2902
16:37:21.315,29530,0.12,-0.60,0.57,8.39,2903
16:37:21.316,29540,-0.01,-0.50,0.68,8.45,2904
16:37:21.324,29550,-0.13,-0.39,0.69,8.07,2905
16:37:21.334,29560,-0.24,-0.29,0.71,8.03,2906
16:37:21.344,29570,-0.24,-0.22,0.77,8.40,2907
16:37:21.354,29580,-0.13,-0.20,0.83,8.65,2908
16:37:21.364,29590,-0.15,-0.25,0.73,7.82,2909
16:37:21.404,29600,-0.13,-0.33,0.56,6.63,2910
16:37:21.405,29610,-0.17,-0.40,0.42,6.04,2911
16:37:21.405,29620,-0.28,-0.44,0.39,6.47,2912
16:37:21.407,29630,-0.35,-0.50,0.50,7.87,2913
16:37:21.439,29640,-0.38,-0.54,0.54,8.52,2914
16:37:21.439,29650,-0.37,-0.52,0.50,8.10,2915
16:37:21.439,29660,-0.39,-0.52,0.42,7.73,2916
16:37:21.452,29670,-0.46,-0.62,0.43,8.83,2917
16:37:21.455,29680,-0.56,-0.68,0.45,9.95,2918
16:37:21.466,29690,-0.67,-0.65,0.41,10.21,2919
16:37:21.474,29700,-0.71,-0.63,0.38,10.21,2920
16:37:21.484,29710,-0.77,-0.62,0.39,10.61,2921
16:37:21.496,29720,-0.77,-0.63,0.33,10.45,2922
16:37:21.550,29730,-0.73,-0.65,0.23,10.00,2923
16:37:21.550,29740,-0.70,-0.54,0.15,8.98,2924
16:37:21.550,29750,-0.70,-0.24,-0.03,7.46,2925
16:37:21.552,29760,-0.74,0.01,-0.30,8.02,2926
16:37:21.553,29770,-0.89,0.22,-0.57,10.75,2927
16:37:21.554,29780,-1.03,0.17,-0.96,14.21,2928
16:37:21.590,29790,-0.96,0.16,-0.94,13.53,2929
16:37:21.591,29800,-0.82,0.04,-0.82,11.57,2930
16:37:21.591,29810,-0.69,-0.15,-0.58,9.14,2931
16:37:21.597,29820,-0.58,-0.44,-0.31,7.97,2932
16:37:21.631,29830,-0.43,-0.52,-0.13,6.90,2933
16:37:21.631,29840,-0.35,-0.62,0.08,7.16,2934
16:37:21.633,29850,-0.53,-0.68,0.12,8.72,2935
16:37:21.634,29860,-0.75,-0.76,0.24,10.97,2936
16:37:21.672,29870,-1.04,-0.83,0.28,13.62,2937
16:37:21.672,29880,-1.53,-0.76,0.24,17.26,2938
16:37:21.674,29890,-1.90,-0.44,0.10,19.49,2939
16:37:21.675,29900,-2.03,-0.09,0.08,20.38,2940
16:37:21.705,29910,-1.81,0.22,-0.02,18.23,2941
16:37:21.705,29920,-1.42,0.07,0.00,14.25,2942
16:37:21.706,29930,-0.88,-0.62,0.09,10.85,2943
16:37:21.731,29940,-0.61,-0.72,0.10,9.48,2944
16:37:21.731,29950,-0.47,-0.83,0.24,9.82,2945
16:37:21.736,29960,-0.43,-0.64,0.60,9.79,2946
16:37:21.752,29970,-0.64,-0.56,0.61,10.47,2947
16:37:21.755,29980,-0.37,-0.51,0.74,9.72,2948
16:37:21.770,29990,-0.42,-0.59,0.70,10.05,2949
16:37:21.774,30000,-0.64,-0.63,0.46,10.07,2950
16:37:21.788,30010,-0.80,-0.78,0.33,11.64,2951
16:37:21.798,30020,-0.81,-1.01,0.25,13.18,2952
16:37:21.809,30030,-0.64,-1.15,0.12,13.22,2953
16:37:21.817,30040,-0.50,-1.17,0.11,12.80,2954
16:37:21.825,30050,-0.40,-1.15,0.03,12.22,2955
16:37:21.838,30060,-0.53,-0.99,0.05,11.28,2956
16:37:21.844,30070,-0.62,-0.76,0.13,9.93,2957
16:37:21.858,30080,-0.76,-0.68,0.15,10.25,2958
16:37:21.867,30090,-0.80,-0.67,0.22,10.62,2959
16:37:21.877,30100,-0.85,-0.63,0.26,10.93,2960
16:37:21.886,30110,-0.82,-0.65,0.26,10.80,2961
16:37:21.895,30120,-0.78,-0.69,0.20,10.57,2962
16:37:21.904,30130,-0.75,-0.68,0.18,10.32,2963
16:37:21.916,30140,-0.76,-0.65,0.21,10.20,2964
16:37:21.925,30150,-0.78,-0.64,0.20,10.26,2965
16:37:21.934,30160,-0.80,-0.60,0.18,10.11,2966
16:37:21.944,30170,-0.81,-0.59,0.14,10.09,2967
16:37:21.962,30180,-0.80,-0.62,0.11,10.18,2968
16:37:21.965,30190,-0.77,-0.65,0.10,10.15,2969
16:37:21.982,30200,-0.76,-0.66,0.07,10.11,2970
16:37:21.986,30210,-0.76,-0.66,0.07,10.09,2971
16:37:21.994,30220,-0.81,-0.61,0.09,10.17,2972
16:37:22.005,30230,-0.84,-0.54,0.08,10.03,2973
16:37:22.014,30240,-0.87,-0.48,0.06,9.96,2974
16:37:22.032,30250,-0.89,-0.48,0.08,10.15,2975
16:37:22.036,30260,-0.87,-0.53,0.07,10.20,2976
16:37:22.044,30270,-0.82,-0.57,0.07,10.07,2977
16:37:22.054,30280,-0.80,-0.61,0.06,10.13,2978
16:37:22.069,30290,-0.78,-0.62,0.06,10.00,2979
16:37:22.074,30300,-0.80,-0.61,0.08,10.08,2980
16:37:22.087,30310,-0.82,-0.59,0.10,10.20,2981
16:37:22.096,30320,-0.86,-0.58,0.10,10.43,2982
16:37:22.106,30330,-0.90,-0.55,0.08,10.58,2983
16:37:22.115,30340,-0.93,-0.52,0.06,10.64,2984
16:37:22.132,30350,-0.94,-0.49,0.02,10.57,2985
16:37:22.134,30360,-0.92,-0.51,-0.06,10.57,2986
16:37:22.145,30370,-0.93,-0.43,-0.13,10.36,2987
16:37:22.160,30380,-0.90,-0.51,-0.16,10.48,2988
16:37:22.165,30390,-0.89,-0.59,-0.14,10.78,2989
16:37:22.210,30400,-0.87,-0.61,-0.13,10.64,2990
16:37:22.210,30410,-0.84,-0.62,-0.12,10.51,2991
16:37:22.210,30420,-0.84,-0.63,-0.08,10.54,2992
16:37:22.212,30430,-0.84,-0.62,-0.05,10.41,2993
16:37:22.246,30440,-0.82,-0.61,0.00,10.25,2994
16:37:22.247,30450,-0.82,-0.63,0.06,10.38,2995
16:37:22.248,30460,-0.85,-0.61,0.08,10.51,2996
16:37:22.249,30470,-0.90,-0.60,0.13,10.90,2997
16:37:22.287,30480,-0.89,-0.66,0.16,11.17,2998
16:37:22.287,30490,-0.95,-0.70,0.15,11.88,2999
16:37:22.289,30500,-1.04,-0.67,0.15,12.46,3000
16:37:22.290,30510,-1.12,-0.61,0.13,12.80,3001
16:37:22.328,30520,-1.17,-0.53,0.06,12.86,3002
16:37:22.330,30530,-1.22,-0.47,0.00,13.08,3003
16:37:22.331,30540,-1.28,-0.42,0.00,13.41,3004
16:37:22.332,30550,-1.40,-0.37,0.00,14.52,3005
16:37:22.334,30560,-1.51,-0.31,0.14,15.51,3006
16:37:22.370,30570,-1.73,-0.32,-0.14,17.68,3007
16:37:22.371,30580,-1.71,-0.40,-0.17,17.69,3008
16:37:22.372,30590,-1.38,-0.56,0.02,14.91,3009
16:37:22.376,30600,-1.16,-0.68,0.07,13.49,3010
16:37:22.407,30610,-0.89,-0.84,0.16,12.35,3011
16:37:22.408,30620,-0.67,-0.97,0.30,12.18,3012
16:37:22.409,30630,-0.59,-1.06,0.45,12.94,3013
16:37:22.416,30640,-0.62,-1.10,0.58,13.90,3014
16:37:22.426,30650,-0.63,-1.08,0.78,14.72,3015
16:37:22.440,30660,-0.60,-1.04,1.11,16.35,3016
16:37:22.445,30670,-0.38,-0.98,1.27,16.51,3017
16:37:22.454,30680,-0.34,-0.88,1.20,15.28,3018
16:37:22.464,30690,-0.34,-0.56,0.97,11.73,3019
16:37:22.479,30700,-0.40,-0.33,0.79,9.46,3020
16:37:22.484,30710,-0.42,-0.27,0.73,8.83,3021
16:37:22.495,30720,-0.39,-0.46,0.77,9.82,3022
16:37:22.506,30730,-0.38,-0.66,0.71,10.36,3023
16:37:22.515,30740,-0.27,-0.80,0.67,10.80,3024
16:37:22.525,30750,-0.06,-0.81,0.67,10.54,3025
16:37:22.540,30760,0.10,-0.78,0.60,9.92,3026
16:37:22.583,30770,0.19,-0.74,0.54,9.31,3027
16:37:22.594,30780,0.02,-0.63,0.56,8.47,3028
16:37:22.595,30790,-0.15,-0.52,0.58,7.96,3029
16:37:22.596,30800,-0.23,-0.48,0.60,8.00,3030
16:37:22.612,30810,-0.22,-0.53,0.68,8.87,3031
16:37:22.613,30820,-0.15,-0.52,0.70,8.85,3032
16:37:22.614,30830,-0.06,-0.50,0.65,8.18,3033
16:37:22.615,30840,0.00,-0.53,0.63,8.22,3034
16:37:22.625,30850,-0.07,-0.49,0.61,7.89,3035
16:37:22.635,30860,-0.23,-0.42,0.58,7.54,3036
16:37:22.650,30870,-0.36,-0.33,0.58,7.57,3037
16:37:22.654,30880,-0.41,-0.26,0.58,7.52,3038
16:37:22.667,30890,-0.40,-0.26,0.56,7.37,3039
16:37:22.677,30900,-0.41,-0.27,0.52,7.15,3040
16:37:22.688,30910,-0.44,-0.29,0.52,7.40,3041
16:37:22.725,30920,-0.46,-0.45,0.55,8.44,3042
16:37:22.726,30930,-0.51,-0.63,0.69,10.64,3043
16:37:22.728,30940,-0.66,-0.84,0.76,13.09,3044
16:37:22.742,30950,-0.71,-0.86,0.58,12.58,3045
16:37:22.745,30960,-0.52,-0.76,0.30,9.68,3046
16:37:22.745,30970,-0.49,-0.70,0.15,8.72,3047
16:37:22.758,30980,-0.61,-0.53,0.09,8.17,3048
16:37:22.765,30990,-0.75,-0.39,0.10,8.51,3049
16:37:22.782,31000,-0.80,-0.34,0.10,8.74,3050
16:37:22.786,31010,-0.74,-0.28,0.06,7.95,3051
16:37:22.794,31020,-0.78,-0.16,-0.19,8.21,3052
16:37:22.804,31030,-0.81,0.04,-0.56,9.87,3053
16:37:22.815,31040,-0.85,0.15,-0.80,11.76,3054
16:37:22.830,31050,-0.87,0.20,-0.78,11.83,3055
16:37:22.834,31060,-0.83,0.10,-0.65,10.54,3056
16:37:22.844,31070,-0.71,-0.17,-0.47,8.75,3057
16:37:22.858,31080,-0.56,-0.44,-0.24,7.48,3058
16:37:22.865,31090,-0.44,-0.60,-0.08,7.44,3059
16:37:22.877,31100,-0.31,-0.70,0.03,7.65,3060
16:37:22.884,31110,-0.31,-0.65,0.20,7.47,3061
16:37:22.894,31120,-0.60,-0.61,0.26,8.95,3062
16:37:22.904,31130,-1.04,-0.61,0.39,12.71,3063
16:37:22.915,31140,-1.55,-0.64,0.40,17.22,3064
16:37:22.924,31150,-2.04,-0.43,0.47,21.37,3065
16:37:22.969,31160,-2.13,0.02,0.33,21.50,3066
16:37:22.969,31170,-1.95,0.44,0.15,20.08,3067
16:37:22.970,31180,-1.64,0.56,-0.23,17.47,3068
16:37:22.972,31190,-1.11,-0.89,-0.11,14.31,3069
16:37:23.002,31200,-0.84,-0.85,0.26,12.25,3070
16:37:23.002,31210,-0.61,-0.97,-0.13,11.49,3071
16:37:23.004,31220,-0.45,-0.85,0.26,9.93,3072
16:37:23.006,31230,-0.43,-0.81,0.33,9.68,3073
16:37:23.036,31240,-0.30,-0.79,0.27,8.86,3074
16:37:23.036,31250,-0.40,-0.66,0.59,9.68,3075
16:37:23.037,31260,-0.47,-0.64,0.51,9.46,3076
16:37:23.077,31270,-0.69,-0.73,0.36,10.64,3077
16:37:23.077,31280,-0.79,-0.91,0.31,12.45,3078
16:37:23.079,31290,-0.79,-1.06,0.24,13.49,3079
16:37:23.081,31300,-0.64,-1.07,0.21,12.61,3080
16:37:23.118,31310,-0.59,-0.93,0.13,11.07,3081
16:37:23.119,31320,-0.62,-0.79,0.08,10.11,3082
16:37:23.122,31330,-0.71,-0.68,0.10,9.90,3083
16:37:23.122,31340,-0.82,-0.60,0.16,10.27,3084
16:37:23.160,31350,-0.85,-0.55,0.23,10.40,3085
16:37:23.161,31360,-0.86,-0.54,0.28,10.53,3086
16:37:23.163,31370,-0.82,-0.60,0.25,10.48,3087
16:37:23.163,31380,-0.76,-0.70,0.22,10.58,3088
16:37:23.164,31390,-0.74,-0.76,0.20,10.76,3089
16:37:23.174,31400,-0.74,-0.73,0.17,10.50,3090
16:37:23.192,31410,-0.79,-0.65,0.19,10.41,3091
16:37:23.194,31420,-0.83,-0.57,0.17,10.25,3092
16:37:23.204,31430,-0.82,-0.54,0.14,9.94,3093
16:37:23.218,31440,-0.82,-0.56,0.11,9.98,3094
16:37:23.227,31450,-0.82,-0.62,0.10,10.35,3095
16:37:23.237,31460,-0.80,-0.68,0.09,10.48,3096
16:37:23.247,31470,-0.77,-0.67,0.03,10.16,3097
16:37:23.256,31480,-0.75,-0.64,0.00,9.90,3098
16:37:23.273,31490,-0.79,-0.61,-0.00,9.95,3099
16:37:23.274,31500,-0.84,-0.58,0.00,10.15,3100
16:37:23.285,31510,-0.87,-0.56,0.02,10.38,3101
16:37:23.295,31520,-0.87,-0.56,0.04,10.36,3102
16:37:23.306,31530,-0.83,-0.58,0.07,10.13,3103
16:37:23.323,31540,-0.79,-0.59,0.07,9.91,3104
16:37:23.324,31550,-0.77,-0.60,0.08,9.82,3105
16:37:23.339,31560,-0.78,-0.61,0.07,9.93,3106
16:37:23.344,31570,-0.79,-0.62,0.08,10.09,3107
16:37:23.355,31580,-0.81,-0.61,0.11,10.16,3108
16:37:23.372,31590,-0.81,-0.59,0.11,10.11,3109
16:37:23.374,31600,-0.83,-0.58,0.13,10.22,3110
16:37:23.391,31610,-0.86,-0.55,0.13,10.28,3111
16:37:23.394,31620,-0.86,-0.57,0.14,10.43,3112
16:37:23.404,31630,-0.90,-0.51,0.08,10.39,3113
16:37:23.414,31640,-0.87,-0.47,-0.02,9.87,3114
16:37:23.430,31650,-0.84,-0.50,-0.05,9.75,3115
16:37:23.434,31660,-0.84,-0.55,-0.07,10.07,3116
16:37:23.445,31670,-0.82,-0.62,-0.07,10.27,3117
16:37:23.455,31680,-0.83,-0.69,-0.03,10.80,3118
16:37:23.465,31690,-0.88,-0.67,0.03,11.08,3119
16:37:23.475,31700,-0.89,-0.61,0.08,10.81,3120
16:37:23.486,31710,-0.85,-0.60,0.07,10.39,3121
16:37:23.495,31720,-0.79,-0.59,0.02,9.90,3122
16:37:23.505,31730,-0.77,-0.62,-0.02,9.91,3123
16:37:23.515,31740,-0.81,-0.62,0.02,10.23,3124
16:37:23.525,31750,-0.89,-0.60,0.08,10.82,3125
16:37:23.542,31760,-0.99,-0.58,0.11,11.55,3126
16:37:23.544,31770,-1.06,-0.54,0.09,11.93,3127
16:37:23.558,31780,-1.14,-0.47,0.08,12.36,3128
16:37:23.564,31790,-1.25,-0.45,0.03,13.32,3129
16:37:23.575,31800,-1.38,-0.41,-0.02,14.40,3130
16:37:23.584,31810,-1.46,-0.36,-0.09,15.10,3131
16:37:23.595,31820,-1.56,-0.39,-0.20,16.16,3132
16:37:23.605,31830,-1.72,-0.38,-0.38,18.03,3133
16:37:23.615,31840,-1.63,-0.42,-0.28,17.05,3134
16:37:23.633,31850,-1.51,-0.61,-0.19,16.41,3135
16:37:23.634,31860,-1.28,-0.86,-0.12,15.42,3136
16:37:23.645,31870,-1.04,-1.09,-0.04,15.03,3137
16:37:23.655,31880,-0.77,-1.14,0.17,13.87,3138
16:37:23.666,31890,-0.60,-1.26,0.40,14.52,3139
16:37:23.676,31900,-0.56,-1.37,0.47,15.51,3140
16:37:23.687,31910,-0.54,-1.32,0.72,15.93,3141
16:37:23.698,31920,-0.61,-1.23,0.92,16.51,3142
16:37:23.738,31930,-0.63,-1.10,0.96,15.87,3143
16:37:23.739,31940,-0.38,-1.14,1.07,16.05,3144
16:37:23.740,31950,-0.14,-0.95,1.42,17.20,3145
16:37:23.742,31960,-0.10,-0.75,1.13,13.60,3146
16:37:23.770,31970,-0.13,-0.50,0.79,9.46,3147
16:37:23.772,31980,-0.25,-0.47,0.65,8.42,3148
16:37:23.772,31990,-0.33,-0.64,0.73,10.20,3149
16:37:23.774,32000,-0.36,-0.76,0.67,10.75,3150
16:37:23.809,32010,-0.31,-0.89,0.57,11.02,3151
16:37:23.809,32020,-0.08,-0.89,0.60,10.72,3152
16:37:23.810,32030,0.09,-0.83,0.54,9.94,3153
16:37:23.814,32040,0.20,-0.72,0.50,9.01,3154
16:37:23.841,32050,0.16,-0.59,0.56,8.24,3155
16:37:23.841,32060,0.05,-0.47,0.63,7.84,3156
16:37:23.845,32070,-0.02,-0.42,0.68,7.95,3157
16:37:23.882,32080,-0.12,-0.32,0.70,7.81,3158
16:37:23.883,32090,-0.16,-0.27,0.73,7.99,3159
16:37:23.926,32100,-0.07,-0.24,0.81,8.45,3160
16:37:23.926,32110,-0.06,-0.25,0.73,7.74,3161
16:37:23.928,32120,-0.06,-0.27,0.69,7.43,3162
16:37:23.928,32130,-0.04,-0.31,0.60,6.81,3163
16:37:23.965,32140,-0.18,-0.36,0.52,6.59,3164
16:37:23.965,32150,-0.29,-0.39,0.53,7.17,3165
16:37:23.966,32160,-0.35,-0.46,0.54,7.91,3166
16:37:23.968,32170,-0.36,-0.53,0.54,8.37,3167
16:37:23.971,32180,-0.33,-0.61,0.51,8.62,3168
16:37:23.971,32190,-0.34,-0.73,0.42,9.11,3169
16:37:23.979,32200,-0.48,-0.84,0.35,10.26,3170
16:37:23.985,32210,-0.61,-0.94,0.28,11.58,3171
16:37:24.002,32220,-0.75,-0.69,0.18,10.32,3172
16:37:24.004,32230,-0.86,-0.42,0.14,9.67,3173
16:37:24.015,32240,-0.90,-0.32,0.28,10.00,3174
16:37:24.048,32250,-0.88,-0.36,0.40,10.36,3175
16:37:24.048,32260,-0.67,-0.39,0.48,9.14,3176
16:37:24.049,32270,-0.59,-0.12,-0.10,6.09,3177
16:37:24.057,32280,-0.71,0.23,-0.77,10.68,3178
16:37:24.066,32290,-0.82,0.49,-1.29,16.02,3179
16:37:24.081,32300,-0.72,0.38,-1.09,13.61,3180
16:37:24.097,32310,-0.70,0.08,-0.81,10.74,3181
16:37:24.098,32320,-0.57,-0.28,-0.56,8.44,3182
16:37:24.108,32330,-0.39,-0.56,-0.31,7.49,3183
16:37:24.118,32340,-0.11,-0.52,0.11,5.41,3184
16:37:24.128,32350,-0.18,-0.63,0.13,6.70,3185
16:37:24.134,32360,-0.62,-0.77,0.14,9.98,3186
16:37:24.145,32370,-1.25,-0.97,0.17,15.98,3187
16:37:24.156,32380,-2.01,-1.09,0.34,23.14,3188
16:37:24.165,32390,-2.13,-0.57,0.32,22.22,3189
16:37:24.175,32400,-2.13,0.02,-0.13,21.29,3190
16:37:24.192,32410,-1.57,0.43,-0.43,16.81,3191
16:37:24.194,32420,-1.06,-0.29,-0.14,11.05,3192
16:37:24.209,32430,-0.71,-0.81,0.44,11.67,3193
16:37:24.215,32440,-0.30,-1.07,0.64,12.84,3194
16:37:24.224,32450,-0.10,-1.22,0.76,14.44,3195
16:37:24.234,32460,-0.12,-0.79,0.85,11.70,3196
16:37:24.247,32470,-0.19,-0.50,0.80,9.63,3197
16:37:24.258,32480,-0.26,-0.37,0.81,9.28,3198
16:37:24.268,32490,-0.65,-0.34,0.60,9.49,3199
16:37:24.274,32500,-1.09,-0.60,0.46,13.28,3200
16:37:24.284,32510,-1.07,-0.92,0.33,14.49,3201
16:37:24.296,32520,-0.83,-1.12,0.16,14.08,3202
16:37:24.307,32530,-0.56,-1.15,0.07,12.83,3203
16:37:24.315,32540,-0.38,-1.15,0.07,12.19,3204
16:37:24.324,32550,-0.38,-1.09,-0.02,11.51,3205
16:37:24.340,32560,-0.50,-0.85,0.12,9.89,3206
16:37:24.344,32570,-0.59,-0.72,0.17,9.44,3207
16:37:24.382,32580,-0.70,-0.69,0.17,9.94,3208
16:37:24.383,32590,-0.77,-0.71,0.20,10.71,3209
16:37:24.384,32600,-0.87,-0.70,0.27,11.46,3210
16:37:24.385,32610,-0.92,-0.61,0.25,11.30,3211
16:37:24.424,32620,-0.92,-0.48,0.22,10.57,3212
16:37:24.424,32630,-0.88,-0.45,0.19,10.08,3213
16:37:24.425,32640,-0.82,-0.53,0.16,9.89,3214
16:37:24.426,32650,-0.80,-0.57,0.17,9.99,3215
16:37:24.466,32660,-0.78,-0.61,0.17,10.04,3216
16:37:24.466,32670,-0.74,-0.67,0.13,10.02,3217
16:37:24.466,32680,-0.72,-0.69,0.10,10.06,3218
16:37:24.468,32690,-0.75,-0.67,0.12,10.14,3219
16:37:24.506,32700,-0.79,-0.63,0.12,10.18,3220
16:37:24.506,32710,-0.82,-0.59,0.13,10.22,3221
16:37:24.508,32720,-0.84,-0.53,0.15,10.07,3222
16:37:24.509,32730,-0.87,-0.49,0.19,10.12,3223
16:37:24.548,32740,-0.86,-0.50,0.21,10.12,3224
16:37:24.549,32750,-0.82,-0.55,0.20,10.06,3225
16:37:24.549,32760,-0.77,-0.61,0.18,10.03,3226
16:37:24.550,32770,-0.74,-0.68,0.15,10.19,3227
16:37:24.581,32780,-0.73,-0.72,0.12,10.29,3228
16:37:24.581,32790,-0.73,-0.69,0.11,10.13,3229
16:37:24.583,32800,-0.77,-0.65,0.08,10.11,3230
16:37:24.584,32810,-0.78,-0.63,0.09,10.06,3231
16:37:24.596,32820,-0.77,-0.63,0.09,10.03,3232
16:37:24.605,32830,-0.77,-0.65,0.13,10.15,3233
16:37:24.615,32840,-0.80,-0.63,0.15,10.30,3234
16:37:24.627,32850,-0.85,-0.57,0.11,10.30,3235
16:37:24.634,32860,-0.92,-0.55,0.10,10.73,3236
16:37:24.645,32870,-0.88,-0.51,0.08,10.21,3237
16:37:24.657,32880,-0.85,-0.55,-0.01,10.09,3238
16:37:24.666,32890,-0.81,-0.54,-0.06,9.75,3239
16:37:24.683,32900,-0.83,-0.57,-0.08,10.14,3240
16:37:24.685,32910,-0.90,-0.61,-0.02,10.88,3241
16:37:24.701,32920,-0.91,-0.61,-0.00,10.97,3242
16:37:24.705,32930,-0.86,-0.60,-0.01,10.52,3243
16:37:24.717,32940,-0.83,-0.58,-0.02,10.13,3244
16:37:24.725,32950,-0.83,-0.57,-0.04,10.10,3245
16:37:24.738,32960,-0.84,-0.58,-0.03,10.27,3246
16:37:24.748,32970,-0.88,-0.61,-0.02,10.68,3247
16:37:24.761,32980,-0.91,-0.64,0.04,11.14,3248
16:37:24.764,32990,-0.98,-0.64,0.11,11.76,3249
16:37:24.775,33000,-1.08,-0.61,0.17,12.52,3250
16:37:24.790,33010,-1.20,-0.55,0.16,13.33,3251
16:37:24.795,33020,-1.30,-0.47,0.12,13.89,3252
16:37:24.808,33030,-1.37,-0.41,0.05,14.27,3253
16:37:24.820,33040,-1.43,-0.42,0.01,14.86,3254
16:37:24.825,33050,-1.58,-0.41,-0.08,16.32,3255
16:37:24.836,33060,-1.72,-0.43,-0.14,17.82,3256
16:37:24.854,33070,-1.79,-0.51,-0.27,18.77,3257
16:37:24.854,33080,-1.37,-0.68,-0.08,15.31,3258
16:37:24.865,33090,-1.06,-0.82,0.14,13.48,3259
16:37:24.882,33100,-0.86,-1.00,0.27,13.50,3260
16:37:24.887,33110,-0.72,-1.11,0.49,14.09,3261
16:37:24.895,33120,-0.66,-1.09,0.62,14.14,3262
16:37:24.904,33130,-0.67,-1.05,0.66,14.15,3263
16:37:24.914,33140,-0.67,-0.94,0.81,14.09,3264
16:37:24.925,33150,-0.59,-0.94,0.96,14.67,3265
16:37:24.942,33160,-0.37,-0.96,1.21,15.93,3266
16:37:24.945,33170,-0.11,-0.94,1.32,16.24,3267
16:37:24.959,33180,-0.08,-0.73,1.18,13.90,3268
16:37:24.965,33190,-0.15,-0.40,0.85,9.45,3269
16:37:24.975,33200,-0.25,-0.28,0.59,7.03,3270
16:37:24.989,33210,-0.31,-0.50,0.64,8.69,3271
16:37:24.998,33220,-0.33,-0.72,0.69,10.54,3272
16:37:25.007,33230,-0.30,-0.91,0.65,11.57,3273
16:37:25.016,33240,-0.08,-0.90,0.66,11.15,3274
16:37:25.027,33250,0.07,-0.81,0.57,9.95,3275
16:37:25.038,33260,0.18,-0.74,0.50,9.10,3276
16:37:25.047,33270,0.12,-0.58,0.56,8.15,3277
16:37:25.059,33280,-0.05,-0.44,0.64,7.81,3278
16:37:25.108,33290,-0.19,-0.37,0.66,7.78,3279
16:37:25.108,33300,-0.25,-0.37,0.71,8.38,3280
16:37:25.109,33310,-0.24,-0.36,0.82,9.22,3281
16:37:25.110,33320,-0.15,-0.34,0.84,9.17,3282
16:37:25.112,33330,-0.09,-0.41,0.74,8.55,3283
16:37:25.142,33340,-0.08,-0.41,0.58,7.15,3284
16:37:25.142,33350,-0.18,-0.38,0.46,6.25,3285
16:37:25.144,33360,-0.29,-0.34,0.49,6.58,3286
16:37:25.146,33370,-0.35,-0.37,0.51,7.23,3287
16:37:25.184,33380,-0.36,-0.47,0.50,7.74,3288
16:37:25.184,33390,-0.38,-0.44,0.47,7.49,3289
16:37:25.186,33400,-0.37,-0.49,0.63,8.83,3290
16:37:25.229,33410,-0.43,-0.59,0.69,10.07,3291
16:37:25.229,33420,-0.56,-0.60,0.51,9.66,3292
16:37:25.230,33430,-0.59,-0.57,0.39,9.10,3293
16:37:25.308,33440,-0.62,-0.62,0.34,9.38,3294
16:37:25.308,33450,-0.65,-0.64,0.32,9.64,3295
16:37:25.309,33460,-0.64,-0.64,0.30,9.53,3296
16:37:25.310,33470,-0.69,-0.57,0.23,9.18,3297
16:37:25.314,33480,-0.76,-0.46,0.14,9.02,3298
16:37:25.314,33490,-0.74,-0.34,0.21,8.39,3299
16:37:25.325,33500,-0.76,-0.18,0.02,7.77,3300
16:37:25.326,33510,-0.81,0.06,-0.33,8.80,3301
16:37:25.326,33520,-0.80,0.25,-0.62,10.45,3302
16:37:25.326,33530,-0.83,0.24,-0.66,10.85,3303
16:37:25.326,33540,-0.77,0.06,-0.59,9.73,3304
16:37:25.327,33550,-0.64,-0.19,-0.50,8.37,3305
16:37:25.335,33560,-0.46,-0.45,-0.40,7.59,3306
16:37:25.344,33570,-0.26,-0.66,-0.12,7.22,3307
16:37:25.386,33580,-0.18,-0.68,-0.02,7.02,3308
16:37:25.386,33590,-0.51,-0.74,0.07,9.05,3309
16:37:25.388,33600,-0.80,-0.76,0.17,11.14,3310
16:37:25.409,33610,-1.37,-0.73,0.26,15.75,3311
16:37:25.410,33620,-2.04,-0.69,0.41,21.89,3312
16:37:25.410,33630,-2.10,-0.12,0.27,21.24,3313
16:37:25.418,33640,-2.01,0.31,-0.27,20.54,3314
16:37:25.424,33650,-1.51,0.51,-0.23,16.12,3315
16:37:25.434,33660,-1.04,-0.35,-0.18,11.09,3316
16:37:25.444,33670,-0.70,-0.73,0.32,10.58,3317
16:37:25.454,33680,-0.67,-0.97,-0.03,11.77,3318
16:37:25.466,33690,-0.47,-0.97,0.30,11.18,3319
16:37:25.476,33700,-0.41,-0.89,0.47,10.87,3320
16:37:25.485,33710,-0.31,-0.80,0.60,10.52,3321
16:37:25.494,33720,-0.43,-0.68,0.55,9.73,3322
16:37:25.509,33730,-0.55,-0.61,0.48,9.51,3323
16:37:25.515,33740,-0.82,-0.55,0.44,10.81,3324
16:37:25.525,33750,-0.93,-0.68,0.35,12.03,3325
16:37:25.534,33760,-0.89,-0.81,0.30,12.38,3326
16:37:25.546,33770,-0.80,-0.86,0.26,12.02,3327
16:37:25.559,33780,-0.69,-0.84,0.13,10.92,3328
16:37:25.564,33790,-0.61,-0.83,0.04,10.32,3329
16:37:25.574,33800,-0.57,-0.83,0.03,10.09,3330
