timestamp,time,ax,ay,az,mag,time2
16:32:30.682,88696,-0.88,-0.58,0.11,10.59,8819
16:32:30.683,88686,-0.87,-0.58,0.11,10.56,8818
16:32:30.692,88706,-0.89,-0.58,0.12,10.66,8820
16:32:30.707,88716,-0.89,-0.52,0.15,10.42,8821
16:32:30.711,88726,-0.94,-0.48,0.11,10.59,8822
16:32:30.722,88736,-0.94,-0.45,0.16,10.59,8823
16:32:30.736,88746,-0.96,-0.44,0.18,10.76,8824
16:32:30.774,88756,-0.96,-0.47,0.20,10.91,8825
16:32:30.775,88766,-0.98,-0.50,0.16,11.17,8826
16:32:30.775,88776,-0.98,-0.52,0.11,11.16,8827
16:32:30.777,88786,-0.96,-0.57,0.08,11.18,8828
16:32:30.816,88796,-0.91,-0.63,0.08,11.07,8829
16:32:30.816,88806,-0.83,-0.72,0.11,11.08,8830
16:32:30.857,88816,-0.81,-0.79,0.12,11.38,8831
16:32:30.858,88826,-0.76,-0.85,0.17,11.54,8832
16:32:30.859,88836,-0.74,-0.87,0.18,11.50,8833
16:32:30.860,88846,-0.71,-0.87,0.24,11.51,8834
16:32:30.899,88856,-0.69,-0.85,0.31,11.33,8835
16:32:30.944,88866,-0.64,-0.83,0.44,11.36,8836
16:32:30.979,88876,-0.62,-0.82,0.49,11.36,8837
16:32:30.983,88886,-0.52,-0.79,0.53,10.86,8838
16:32:30.983,88896,-0.44,-0.80,0.61,10.93,8839
16:32:30.983,88906,-0.37,-0.80,0.73,11.40,8840
16:32:30.999,88916,-0.38,-0.71,0.79,11.25,8841
16:32:30.999,88926,-0.47,-0.56,0.66,9.84,8842
16:32:31.003,88936,-0.55,-0.54,0.56,9.52,8843
16:32:31.003,88946,-0.52,-0.57,0.54,9.45,8844
16:32:31.004,88956,-0.53,-0.62,0.49,9.53,8845
16:32:31.007,88966,-0.48,-0.64,0.51,9.48,8846
16:32:31.007,88976,-0.43,-0.64,0.50,9.17,8847
16:32:31.007,88986,-0.40,-0.64,0.45,8.75,8848
16:32:31.007,88996,-0.39,-0.62,0.44,8.53,8849
16:32:31.007,89006,-0.41,-0.62,0.46,8.68,8850
16:32:31.039,89016,-0.46,-0.58,0.49,8.82,8851
16:32:31.040,89026,-0.49,-0.54,0.53,8.99,8852
16:32:31.044,89036,-0.51,-0.50,0.52,8.83,8853
16:32:31.044,89046,-0.51,-0.47,0.52,8.67,8854
16:32:31.046,89056,-0.54,-0.45,0.50,8.68,8855
16:32:31.051,89066,-0.57,-0.46,0.52,8.97,8856
16:32:31.088,89076,-0.58,-0.52,0.51,9.32,8857
16:32:31.089,89086,-0.59,-0.58,0.50,9.72,8858
16:32:31.090,89096,-0.61,-0.62,0.48,9.88,8859
16:32:31.092,89106,-0.62,-0.64,0.45,10.01,8860
16:32:31.105,89116,-0.62,-0.65,0.45,10.10,8861
16:32:31.122,89126,-0.62,-0.66,0.42,10.03,8862
16:32:31.123,89136,-0.62,-0.66,0.41,9.94,8863
16:32:31.134,89146,-0.60,-0.66,0.39,9.77,8864
16:32:31.143,89156,-0.60,-0.65,0.39,9.65,8865
16:32:31.151,89166,-0.60,-0.66,0.38,9.68,8866
16:32:31.166,89176,-0.62,-0.66,0.37,9.74,8867
16:32:31.172,89186,-0.65,-0.64,0.32,9.65,8868
16:32:31.200,89196,-0.67,-0.58,0.17,9.04,8869
16:32:31.203,89206,-0.71,-0.54,0.19,9.15,8870
16:32:31.203,89216,-0.80,-0.52,0.25,9.85,8871
16:32:31.213,89226,-0.83,-0.50,0.25,10.04,8872
16:32:31.230,89236,-0.85,-0.47,0.22,9.98,8873
16:32:31.232,89246,-0.87,-0.46,0.18,9.98,8874
16:32:31.246,89256,-0.86,-0.44,0.15,9.80,8875
16:32:31.256,89266,-0.84,-0.46,0.13,9.66,8876
16:32:31.261,89276,-0.85,-0.47,0.10,9.77,8877
16:32:31.273,89286,-0.82,-0.45,-0.03,9.38,8878
16:32:31.282,89296,-0.84,-0.40,-0.09,9.34,8879
16:32:31.298,89306,-0.86,-0.37,-0.12,9.45,8880
16:32:31.301,89316,-0.87,-0.37,-0.16,9.63,8881
16:32:31.311,89326,-0.87,-0.36,-0.18,9.62,8882
16:32:31.322,89336,-0.89,-0.33,-0.21,9.77,8883
16:32:31.333,89346,-0.88,-0.33,-0.26,9.72,8884
16:32:31.341,89356,-0.85,-0.33,-0.34,9.72,8885
16:32:31.351,89366,-0.82,-0.26,-0.44,9.63,8886
16:32:31.369,89376,-0.81,-0.22,-0.49,9.71,8887
16:32:31.370,89386,-0.78,-0.23,-0.45,9.28,8888
16:32:31.381,89396,-0.78,-0.27,-0.39,9.10,8889
16:32:31.392,89406,-0.77,-0.33,-0.35,9.07,8890
16:32:31.409,89416,-0.74,-0.37,-0.28,8.78,8891
16:32:31.411,89426,-0.72,-0.37,-0.22,8.41,8892
16:32:31.422,89436,-0.72,-0.36,-0.14,8.16,8893
16:32:31.436,89446,-0.72,-0.35,-0.08,8.11,8894
16:32:31.441,89456,-0.73,-0.36,-0.01,8.15,8895
16:32:31.456,89466,-0.83,-0.42,0.00,9.29,8896
16:32:31.461,89476,-1.14,-0.54,-0.02,12.64,8897
16:32:31.471,89486,-1.23,-0.64,-0.04,13.81,8898
16:32:31.481,89496,-1.34,-0.65,-0.11,14.95,8899
16:32:31.493,89506,-1.40,-0.32,-0.22,14.52,8900
16:32:31.544,89516,-1.45,-0.00,-0.36,14.98,8901
16:32:31.545,89526,-1.44,0.03,-0.47,15.18,8902
16:32:31.546,89536,-1.31,-0.40,-0.39,14.21,8903
16:32:31.546,89546,-1.18,-0.63,-0.29,13.71,8904
16:32:31.548,89556,-1.03,-0.66,-0.26,12.54,8905
16:32:31.587,89566,-0.91,-0.61,-0.17,11.05,8906
16:32:31.588,89576,-0.88,-0.54,-0.10,10.40,8907
16:32:31.589,89586,-0.84,-0.51,-0.06,9.85,8908
16:32:31.589,89596,-0.85,-0.50,0.01,9.81,8909
16:32:31.594,89606,-0.89,-0.53,0.00,10.37,8910
16:32:31.628,89616,-0.76,-0.69,0.02,10.25,8911
16:32:31.628,89626,-0.68,-0.82,0.12,10.67,8912
16:32:31.632,89636,-0.76,-0.75,0.20,10.87,8913
16:32:31.633,89646,-0.83,-0.63,0.20,10.59,8914
16:32:31.674,89656,-0.79,-0.57,0.22,10.02,8915
16:32:31.709,89666,-0.86,-0.62,0.13,10.70,8916
16:32:31.710,89676,-0.85,-0.66,0.08,10.79,8917
16:32:31.711,89686,-0.84,-0.72,0.06,11.09,8918
16:32:31.712,89696,-0.79,-0.77,0.01,11.05,8919
16:32:31.713,89706,-0.71,-0.80,-0.04,10.70,8920
16:32:31.724,89716,-0.68,-0.82,-0.03,10.67,8921
16:32:31.724,89726,-0.71,-0.80,0.02,10.72,8922
16:32:31.727,89736,-0.75,-0.74,0.03,10.52,8923
16:32:31.732,89746,-0.78,-0.68,0.01,10.41,8924
16:32:31.742,89756,-0.83,-0.66,0.00,10.60,8925
16:32:31.753,89766,-0.89,-0.64,0.00,10.93,8926
16:32:31.770,89776,-0.92,-0.63,0.03,11.16,8927
16:32:31.770,89786,-0.91,-0.61,0.06,10.97,8928
16:32:31.787,89796,-0.88,-0.60,0.04,10.60,8929
16:32:31.797,89806,-0.84,-0.61,0.02,10.37,8930
16:32:31.804,89816,-0.82,-0.63,0.00,10.36,8931
16:32:31.811,89826,-0.81,-0.67,0.00,10.47,8932
16:32:31.822,89836,-0.77,-0.70,-0.01,10.44,8933
16:32:31.831,89846,-0.74,-0.76,-0.00,10.57,8934
16:32:31.842,89856,-0.73,-0.76,-0.00,10.51,8935
16:32:31.852,89866,-0.75,-0.72,0.03,10.36,8936
16:32:31.866,89876,-0.81,-0.63,0.04,10.27,8937
16:32:31.872,89886,-0.90,-0.54,0.08,10.52,8938
16:32:31.881,89896,-0.94,-0.50,0.09,10.69,8939
16:32:31.893,89906,-0.89,-0.55,0.08,10.48,8940
16:32:31.903,89916,-0.81,-0.63,0.02,10.24,8941
16:32:31.913,89926,-0.74,-0.72,-0.01,10.32,8942
16:32:31.921,89936,-0.72,-0.77,-0.04,10.56,8943
16:32:31.931,89946,-0.75,-0.72,-0.05,10.45,8944
16:32:31.941,89956,-0.82,-0.66,-0.04,10.50,8945
16:32:31.952,89966,-0.88,-0.58,-0.05,10.52,8946
16:32:31.962,89976,-0.91,-0.54,-0.04,10.56,8947
16:32:31.971,89986,-0.88,-0.55,-0.04,10.40,8948
16:32:31.981,89996,-0.85,-0.58,-0.05,10.35,8949
16:32:31.992,90006,-0.82,-0.63,-0.06,10.31,8950
16:32:32.024,90016,-0.80,-0.65,-0.07,10.40,8951
16:32:32.027,90026,-0.82,-0.65,-0.10,10.52,8952
16:32:32.027,90036,-0.80,-0.65,-0.09,10.37,8953
16:32:32.030,90046,-0.79,-0.64,-0.08,10.18,8954
16:32:32.045,90056,-0.77,-0.63,-0.06,9.99,8955
16:32:32.053,90066,-0.78,-0.63,-0.06,10.03,8956
16:32:32.065,90076,-0.78,-0.65,-0.05,10.16,8957
16:32:32.071,90086,-0.78,-0.67,-0.04,10.31,8958
16:32:32.087,90096,-0.80,-0.68,-0.05,10.49,8959
16:32:32.092,90106,-0.80,-0.69,-0.07,10.52,8960
16:32:32.132,90116,-0.77,-0.68,-0.10,10.33,8961
16:32:32.132,90126,-0.77,-0.66,-0.12,10.19,8962
16:32:32.136,90136,-0.81,-0.61,-0.09,10.13,8963
16:32:32.138,90146,-0.85,-0.62,-0.04,10.50,8964
16:32:32.140,90156,-0.84,-0.63,-0.02,10.50,8965
16:32:32.151,90166,-0.79,-0.62,-0.03,10.03,8966
16:32:32.164,90176,-0.78,-0.61,-0.05,9.88,8967
16:32:32.175,90186,-0.77,-0.62,-0.06,9.88,8968
16:32:32.186,90196,-0.78,-0.64,-0.07,10.10,8969
16:32:32.236,90206,-0.83,-0.66,-0.04,10.57,8970
16:32:32.237,90216,-0.87,-0.70,-0.01,11.18,8971
16:32:32.241,90226,-0.88,-0.72,0.03,11.40,8972
16:32:32.242,90236,-0.93,-0.66,0.04,11.41,8973
16:32:32.242,90246,-0.97,-0.61,0.07,11.49,8974
16:32:32.276,90256,-1.06,-0.51,0.06,11.75,8975
16:32:32.277,90266,-1.10,-0.50,0.05,12.08,8976
16:32:32.282,90276,-1.03,-0.56,0.02,11.73,8977
16:32:32.283,90286,-0.98,-0.63,-0.09,11.67,8978
16:32:32.283,90296,-1.01,-0.64,-0.13,11.98,8979
16:32:32.318,90306,-1.04,-0.63,-0.11,12.20,8980
16:32:32.319,90316,-1.11,-0.59,-0.11,12.64,8981
16:32:32.320,90326,-1.20,-0.52,-0.07,13.09,8982
16:32:32.321,90336,-1.28,-0.48,-0.01,13.68,8983
16:32:32.360,90346,-1.39,-0.43,-0.07,14.57,8984
16:32:32.361,90356,-1.50,-0.39,-0.18,15.59,8985
16:32:32.361,90366,-1.48,-0.37,-0.22,15.40,8986
16:32:32.362,90376,-1.33,-0.48,-0.13,14.20,8987
16:32:32.394,90386,-1.14,-0.64,0.02,13.04,8988
16:32:32.397,90396,-0.94,-0.81,0.15,12.54,8989
16:32:32.419,90406,-0.80,-0.97,0.30,12.87,8990
16:32:32.419,90416,-0.66,-1.04,0.44,13.13,8991
16:32:32.419,90426,-0.61,-1.06,0.52,13.30,8992
16:32:32.422,90436,-0.59,-1.06,0.58,13.43,8993
16:32:32.434,90446,-0.57,-0.97,0.64,12.92,8994
16:32:32.441,90456,-0.52,-0.88,0.74,12.62,8995
16:32:32.451,90466,-0.44,-0.79,0.93,12.94,8996
16:32:32.462,90476,-0.36,-0.72,1.09,13.59,8997
16:32:32.478,90486,-0.37,-0.55,0.93,11.40,8998
16:32:32.482,90496,-0.40,-0.41,0.76,9.49,8999
16:32:32.498,90506,-0.42,-0.45,0.64,8.93,9000
16:32:32.505,90516,-0.45,-0.59,0.63,9.73,9001
16:32:32.511,90526,-0.48,-0.72,0.56,10.31,9002
16:32:32.521,90536,-0.39,-0.76,0.52,9.98,9003
16:32:32.533,90546,-0.24,-0.74,0.55,9.53,9004
16:32:32.543,90556,-0.13,-0.69,0.55,8.90,9005
16:32:32.551,90566,-0.12,-0.62,0.56,8.43,9006
16:32:32.566,90576,-0.17,-0.50,0.56,7.68,9007
16:32:32.571,90586,-0.26,-0.41,0.52,7.14,9008
16:32:32.581,90596,-0.36,-0.43,0.53,7.71,9009
16:32:32.599,90606,-0.39,-0.45,0.55,8.15,9010
16:32:32.601,90616,-0.34,-0.51,0.58,8.42,9011
16:32:32.612,90626,-0.27,-0.51,0.58,8.22,9012
16:32:32.622,90636,-0.20,-0.49,0.55,7.65,9013
16:32:32.634,90646,-0.25,-0.49,0.53,7.69,9014
16:32:32.641,90656,-0.39,-0.50,0.54,8.28,9015
16:32:32.651,90666,-0.47,-0.49,0.56,8.81,9016
16:32:32.663,90676,-0.54,-0.47,0.59,9.26,9017
16:32:32.671,90686,-0.58,-0.46,0.59,9.51,9018
16:32:32.681,90696,-0.59,-0.46,0.59,9.51,9019
16:32:32.695,90706,-0.56,-0.49,0.55,9.28,9020
16:32:32.701,90716,-0.52,-0.56,0.46,8.91,9021
16:32:32.719,90726,-0.50,-0.58,0.27,8.13,9022
16:32:32.722,90736,-0.50,-0.68,0.31,8.99,9023
16:32:32.732,90746,-0.57,-0.80,0.37,10.49,9024
16:32:32.741,90756,-0.62,-0.74,0.31,10.12,9025
16:32:32.751,90766,-0.64,-0.62,0.23,9.19,9026
16:32:32.768,90776,-0.78,-0.51,0.24,9.62,9027
16:32:32.771,90786,-0.92,-0.44,0.22,10.46,9028
16:32:32.789,90796,-0.94,-0.33,0.14,10.10,9029
16:32:32.791,90806,-0.89,-0.27,0.12,9.39,9030
16:32:32.805,90816,-0.90,-0.21,0.04,9.21,9031
16:32:32.811,90826,-0.90,-0.11,-0.14,9.16,9032
16:32:32.822,90836,-0.88,-0.08,-0.31,9.31,9033
16:32:32.832,90846,-0.85,-0.16,-0.43,9.64,9034
16:32:32.846,90856,-0.78,-0.23,-0.59,10.06,9035
16:32:32.852,90866,-0.71,-0.22,-0.70,10.22,9036
16:32:32.871,90876,-0.66,-0.20,-0.71,9.91,9037
16:32:32.871,90886,-0.65,-0.20,-0.54,8.72,9038
16:32:32.911,90896,-0.63,-0.27,-0.40,7.94,9039
16:32:32.912,90906,-0.64,-0.40,-0.25,7.95,9040
16:32:32.915,90916,-0.71,-0.54,-0.11,9.00,9041
16:32:32.917,90926,-0.63,-0.59,-0.08,8.64,9042
16:32:32.953,90936,-0.78,-0.52,-0.09,9.46,9043
16:32:32.955,90946,-1.32,-0.51,-0.04,14.15,9044
16:32:32.955,90956,-1.89,-0.44,0.03,19.44,9045
16:32:32.955,90966,-2.01,-0.32,0.00,20.36,9046
16:32:32.990,90976,-1.47,-0.08,-0.27,14.97,9047
16:32:32.994,90986,-0.97,-0.35,-0.44,11.18,9048
16:32:32.994,90996,-0.89,-0.73,-0.26,11.78,9049
16:32:32.994,91006,-0.78,-0.92,0.10,12.04,9050
16:32:33.032,91016,-0.73,-0.88,0.12,11.48,9051
16:32:33.032,91026,-0.62,-0.84,0.28,10.79,9052
16:32:33.036,91036,-0.66,-0.73,0.40,10.61,9053
16:32:33.036,91046,-0.83,-0.59,0.42,10.96,9054
16:32:33.072,91056,-0.83,-0.45,0.65,11.44,9055
16:32:33.072,91066,-1.00,-0.35,0.50,11.72,9056
16:32:33.075,91076,-1.11,-0.28,0.35,11.96,9057
16:32:33.075,91086,-0.97,-0.49,0.22,11.08,9058
16:32:33.109,91096,-0.84,-0.74,0.11,11.23,9059
16:32:33.110,91106,-0.69,-0.92,-0.00,11.49,9060
16:32:33.113,91116,-0.52,-1.07,-0.04,11.93,9061
16:32:33.113,91126,-0.41,-1.19,-0.04,12.61,9062
16:32:33.121,91136,-0.39,-1.16,-0.07,12.22,9063
16:32:33.131,91146,-0.55,-0.91,-0.06,10.69,9064
16:32:33.143,91156,-0.73,-0.82,0.03,11.00,9065
16:32:33.151,91166,-0.87,-0.69,0.05,11.10,9066
16:32:33.163,91176,-0.98,-0.56,0.09,11.30,9067
16:32:33.173,91186,-0.99,-0.51,0.11,11.21,9068
16:32:33.181,91196,-0.96,-0.50,0.09,10.91,9069
16:32:33.198,91206,-0.88,-0.55,0.06,10.40,9070
16:32:33.201,91216,-0.83,-0.64,0.03,10.51,9071
16:32:33.211,91226,-0.79,-0.73,-0.00,10.75,9072
16:32:33.224,91236,-0.74,-0.78,-0.04,10.71,9073
16:32:33.234,91246,-0.71,-0.78,-0.06,10.61,9074
16:32:33.241,91256,-0.75,-0.73,-0.07,10.51,9075
16:32:33.251,91266,-0.78,-0.70,-0.07,10.48,9076
16:32:33.265,91276,-0.80,-0.66,-0.08,10.46,9077
16:32:33.273,91286,-0.81,-0.64,-0.10,10.35,9078
16:32:33.301,91296,-0.83,-0.65,-0.10,10.55,9079
16:32:33.304,91306,-0.82,-0.69,-0.14,10.81,9080
16:32:33.304,91316,-0.73,-0.77,-0.17,10.75,9081
16:32:33.316,91326,-0.62,-0.86,-0.18,10.77,9082
16:32:33.323,91336,-0.56,-0.92,-0.20,10.94,9083
16:32:33.332,91346,-0.58,-0.85,-0.20,10.47,9084
16:32:33.341,91356,-0.74,-0.63,-0.09,9.81,9085
16:32:33.351,91366,-0.95,-0.45,0.03,10.53,9086
16:32:33.361,91376,-1.15,-0.28,0.10,11.84,9087
16:32:33.378,91386,-1.29,-0.17,0.13,13.08,9088
16:32:33.381,91396,-1.28,-0.10,0.18,12.93,9089
16:32:33.394,91406,-0.95,-0.45,0.04,10.50,9090
16:32:33.412,91416,-0.73,-0.71,-0.07,10.24,9091
16:32:33.412,91426,-0.63,-0.84,-0.12,10.55,9092
16:32:33.443,91436,-0.74,-0.76,-0.08,10.65,9093
16:32:33.443,91446,-0.83,-0.64,0.04,10.55,9094
16:32:33.446,91456,-0.87,-0.58,0.07,10.43,9095
16:32:33.454,91466,-0.84,-0.54,0.02,10.01,9096
16:32:33.464,91476,-0.82,-0.56,0.00,9.93,9097
16:32:33.471,91486,-0.80,-0.61,0.02,10.05,9098
16:32:33.482,91496,-0.81,-0.64,0.02,10.36,9099
16:32:33.491,91506,-0.78,-0.68,0.03,10.35,9100
16:32:33.501,91516,-0.77,-0.66,0.01,10.16,9101
16:32:33.518,91526,-0.77,-0.66,-0.02,10.15,9102
16:32:33.521,91536,-0.76,-0.67,-0.01,10.14,9103
16:32:33.531,91546,-0.77,-0.68,-0.01,10.22,9104
16:32:33.541,91556,-0.77,-0.69,-0.01,10.30,9105
16:32:33.552,91566,-0.77,-0.68,0.03,10.29,9106
16:32:33.563,91576,-0.75,-0.69,0.07,10.21,9107
16:32:33.573,91586,-0.73,-0.68,0.08,10.03,9108
16:32:33.584,91596,-0.73,-0.66,0.06,9.85,9109
16:32:33.591,91606,-0.75,-0.67,0.05,10.08,9110
16:32:33.601,91616,-0.84,-0.66,0.05,10.70,9111
16:32:33.611,91626,-0.93,-0.61,0.06,11.13,9112
16:32:33.621,91636,-0.97,-0.60,0.05,11.37,9113
16:32:33.632,91646,-0.93,-0.62,0.00,11.18,9114
16:32:33.647,91656,-0.94,-0.61,-0.04,11.17,9115
16:32:33.651,91666,-0.96,-0.61,-0.06,11.36,9116
16:32:33.661,91676,-0.96,-0.61,-0.09,11.43,9117
16:32:33.672,91686,-0.99,-0.60,-0.12,11.62,9118
16:32:33.681,91696,-1.02,-0.57,-0.17,11.79,9119
16:32:33.693,91706,-1.04,-0.55,-0.20,11.92,9120
16:32:33.745,91716,-1.06,-0.56,-0.19,12.14,9121
16:32:33.746,91726,-1.10,-0.57,-0.17,12.51,9122
16:32:33.747,91736,-1.15,-0.56,-0.12,12.86,9123
16:32:33.748,91746,-1.22,-0.59,-0.09,13.57,9124
16:32:33.749,91756,-1.29,-0.65,-0.12,14.51,9125
16:32:33.750,91766,-1.37,-0.65,-0.18,15.26,9126
16:32:33.783,91776,-1.43,-0.58,-0.22,15.57,9127
16:32:33.784,91786,-1.25,-0.60,-0.21,14.07,9128
16:32:33.785,91796,-1.06,-0.74,-0.08,12.92,9129
16:32:33.823,91806,-0.89,-0.90,0.15,12.77,9130
16:32:33.824,91816,-0.82,-1.02,0.32,13.47,9131
16:32:33.825,91826,-0.79,-1.07,0.37,13.78,9132
16:32:33.826,91836,-0.72,-1.05,0.44,13.48,9133
16:32:33.865,91846,-0.66,-0.98,0.56,13.04,9134
16:32:33.865,91856,-0.59,-0.90,0.66,12.63,9135
16:32:33.867,91866,-0.53,-0.77,0.78,12.22,9136
16:32:33.868,91876,-0.43,-0.70,0.83,11.64,9137
16:32:33.872,91886,-0.27,-0.73,1.12,13.68,9138
16:32:33.906,91896,-0.16,-0.71,1.23,14.31,9139
16:32:33.907,91906,-0.27,-0.50,0.91,10.74,9140
16:32:33.908,91916,-0.42,-0.41,0.66,8.85,9141
16:32:33.911,91926,-0.44,-0.51,0.64,9.27,9142
16:32:33.933,91936,-0.45,-0.65,0.64,10.16,9143
16:32:33.933,91946,-0.41,-0.78,0.63,10.80,9144
16:32:33.941,91956,-0.27,-0.75,0.65,10.30,9145
16:32:33.955,91966,-0.18,-0.65,0.58,8.89,9146
16:32:33.964,91976,-0.15,-0.53,0.55,7.80,9147
16:32:33.973,91986,-0.19,-0.46,0.60,7.80,9148
16:32:33.982,91996,-0.28,-0.38,0.61,7.74,9149
16:32:33.994,92006,-0.35,-0.36,0.62,8.01,9150
16:32:34.001,92016,-0.38,-0.36,0.67,8.50,9151
16:32:34.011,92026,-0.41,-0.25,0.63,7.92,9152
16:32:34.022,92036,-0.40,-0.24,0.62,7.79,9153
16:32:34.031,92046,-0.30,-0.37,0.66,8.11,9154
16:32:34.041,92056,-0.29,-0.45,0.61,8.06,9155
16:32:34.051,92066,-0.37,-0.47,0.57,8.30,9156
16:32:34.066,92076,-0.45,-0.49,0.60,8.95,9157
16:32:34.073,92086,-0.50,-0.49,0.61,9.26,9158
16:32:34.083,92096,-0.50,-0.50,0.55,8.95,9159
16:32:34.093,92106,-0.45,-0.49,0.49,8.33,9160
16:32:34.101,92116,-0.42,-0.53,0.49,8.36,9161
16:32:34.111,92126,-0.43,-0.59,0.47,8.68,9162
16:32:34.122,92136,-0.44,-0.63,0.44,8.89,9163
16:32:34.135,92146,-0.45,-0.68,0.38,9.01,9164
16:32:34.141,92156,-0.48,-0.62,0.27,8.29,9165
16:32:34.151,92166,-0.53,-0.63,0.25,8.64,9166
16:32:34.165,92176,-0.58,-0.68,0.30,9.41,9167
16:32:34.172,92186,-0.66,-0.67,0.26,9.70,9168
16:32:34.182,92196,-0.70,-0.57,0.23,9.32,9169
16:32:34.192,92206,-0.76,-0.49,0.24,9.39,9170
16:32:34.206,92216,-0.83,-0.45,0.21,9.63,9171
16:32:34.211,92226,-0.83,-0.45,0.27,9.76,9172
16:32:34.225,92236,-0.85,-0.44,0.14,9.67,9173
16:32:34.232,92246,-0.88,-0.32,-0.06,9.40,9174
16:32:34.272,92256,-0.91,-0.25,-0.17,9.55,9175
16:32:34.272,92266,-0.92,-0.22,-0.20,9.70,9176
16:32:34.273,92276,-0.89,-0.23,-0.28,9.63,9177
16:32:34.274,92286,-0.92,-0.23,-0.49,10.64,9178
16:32:34.281,92296,-0.84,-0.20,-0.68,10.97,9179
16:32:34.297,92306,-0.79,-0.15,-0.76,11.06,9180
16:32:34.301,92316,-0.76,-0.16,-0.71,10.48,9181
16:32:34.311,92326,-0.76,-0.20,-0.57,9.74,9182
16:32:34.323,92336,-0.74,-0.27,-0.43,8.96,9183
16:32:34.334,92346,-0.71,-0.30,-0.29,8.21,9184
16:32:34.344,92356,-0.69,-0.34,-0.18,7.84,9185
16:32:34.354,92366,-0.71,-0.45,-0.10,8.46,9186
16:32:34.361,92376,-0.91,-0.63,-0.12,11.12,9187
16:32:34.371,92386,-0.97,-0.78,-0.10,12.48,9188
16:32:34.385,92396,-1.11,-0.76,-0.16,13.51,9189
16:32:34.395,92406,-1.23,-0.66,-0.26,14.22,9190
16:32:34.401,92416,-1.32,-0.39,-0.35,14.18,9191
16:32:34.416,92426,-1.48,-0.17,-0.37,15.38,9192
16:32:34.422,92436,-1.60,-0.10,-0.18,16.15,9193
16:32:34.470,92446,-1.55,-0.11,-0.10,15.53,9194
16:32:34.471,92456,-1.12,-0.39,-0.09,11.93,9195
16:32:34.472,92466,-0.87,-0.61,-0.14,10.66,9196
16:32:34.473,92476,-0.70,-0.77,0.03,10.44,9197
16:32:34.474,92486,-0.60,-0.81,0.25,10.38,9198
16:32:34.511,92496,-0.63,-0.77,0.23,10.24,9199
16:32:34.512,92506,-0.58,-0.78,0.19,9.93,9200
16:32:34.513,92516,-0.57,-0.82,0.27,10.37,9201
16:32:34.514,92526,-0.77,-0.69,0.33,10.88,9202
16:32:34.544,92536,-1.04,-0.54,0.35,12.27,9203
16:32:34.545,92546,-1.12,-0.38,0.34,12.27,9204
16:32:34.546,92556,-1.07,-0.32,0.24,11.46,9205
16:32:34.550,92566,-0.90,-0.53,0.07,10.45,9206
16:32:34.583,92576,-0.71,-0.73,-0.05,10.18,9207
16:32:34.585,92586,-0.63,-0.91,-0.15,11.19,9208
16:32:34.588,92596,-0.58,-1.00,-0.17,11.68,9209
16:32:34.624,92606,-0.57,-1.05,-0.15,11.99,9210
16:32:34.626,92616,-0.62,-0.94,-0.09,11.33,9211
16:32:34.626,92626,-0.71,-0.82,-0.02,10.84,9212
16:32:34.629,92636,-0.79,-0.70,-0.02,10.59,9213
16:32:34.667,92646,-0.83,-0.63,0.01,10.46,9214
16:32:34.670,92656,-0.87,-0.60,0.05,10.62,9215
16:32:34.670,92666,-0.86,-0.64,0.07,10.77,9216
16:32:34.670,92676,-0.81,-0.68,0.08,10.59,9217
16:32:34.673,92686,-0.78,-0.70,0.06,10.53,9218
16:32:34.702,92696,-0.78,-0.69,0.04,10.45,9219
16:32:34.713,92706,-0.80,-0.69,0.03,10.57,9220
16:32:34.713,92716,-0.80,-0.68,0.01,10.50,9221
16:32:34.714,92726,-0.79,-0.67,0.02,10.33,9222
16:32:34.728,92736,-0.78,-0.67,0.02,10.26,9223
16:32:34.731,92746,-0.79,-0.66,0.02,10.28,9224
16:32:34.748,92756,-0.83,-0.63,0.04,10.44,9225
16:32:34.754,92766,-0.88,-0.56,0.07,10.46,9226
16:32:34.765,92776,-0.93,-0.52,0.08,10.66,9227
16:32:34.771,92786,-0.92,-0.52,0.08,10.56,9228
16:32:34.782,92796,-0.83,-0.60,0.05,10.26,9229
16:32:34.791,92806,-0.78,-0.66,0.03,10.25,9230
16:32:34.801,92816,-0.74,-0.72,0.01,10.34,9231
16:32:34.811,92826,-0.74,-0.75,-0.00,10.52,9232
16:32:34.821,92836,-0.74,-0.74,-0.02,10.43,9233
16:32:34.831,92846,-0.77,-0.70,-0.02,10.39,9234
16:32:34.848,92856,-0.81,-0.66,-0.02,10.44,9235
16:32:34.851,92866,-0.82,-0.64,-0.03,10.37,9236
16:32:34.869,92876,-0.82,-0.62,-0.03,10.28,9237
16:32:34.871,92886,-0.81,-0.60,-0.04,10.15,9238
16:32:34.885,92896,-0.83,-0.61,-0.03,10.32,9239
16:32:34.893,92906,-0.86,-0.59,-0.00,10.38,9240
16:32:34.901,92916,-0.88,-0.56,0.03,10.47,9241
16:32:34.911,92926,-0.89,-0.56,0.02,10.53,9242
16:32:34.921,92936,-0.87,-0.59,-0.03,10.53,9243
16:32:34.931,92946,-0.83,-0.63,-0.11,10.47,9244
16:32:34.945,92956,-0.82,-0.63,-0.11,10.40,9245
16:32:34.951,92966,-0.83,-0.64,-0.06,10.48,9246
16:32:34.966,92976,-0.83,-0.63,-0.03,10.44,9247
16:32:34.971,92986,-0.79,-0.65,0.03,10.22,9248
16:32:34.981,92996,-0.76,-0.66,0.02,10.10,9249
16:32:34.998,93006,-0.74,-0.63,-0.04,9.74,9250
16:32:35.001,93016,-0.75,-0.65,-0.05,9.91,9251
16:32:35.012,93026,-0.80,-0.66,-0.02,10.33,9252
16:32:35.022,93036,-0.84,-0.65,-0.01,10.68,9253
16:32:35.032,93046,-0.80,-0.67,0.01,10.41,9254
16:32:35.044,93056,-0.72,-0.72,0.02,10.17,9255
16:32:35.052,93066,-0.67,-0.73,0.00,9.91,9256
16:32:35.062,93076,-0.70,-0.70,0.00,9.87,9257
16:32:35.114,93086,-0.79,-0.66,-0.02,10.33,9258
16:32:35.114,93096,-0.82,-0.74,0.03,11.02,9259
16:32:35.115,93106,-0.82,-0.77,0.07,11.30,9260
16:32:35.117,93116,-0.87,-0.72,0.10,11.28,9261
16:32:35.118,93126,-0.94,-0.64,0.10,11.42,9262
16:32:35.154,93136,-0.97,-0.62,0.11,11.59,9263
16:32:35.156,93146,-0.95,-0.63,0.07,11.38,9264
16:32:35.159,93156,-0.95,-0.62,-0.01,11.32,9265
16:32:35.159,93166,-0.96,-0.60,-0.06,11.37,9266
16:32:35.161,93176,-0.98,-0.58,-0.14,11.44,9267
16:32:35.196,93186,-1.02,-0.58,-0.18,11.83,9268
16:32:35.198,93196,-1.08,-0.58,-0.17,12.39,9269
16:32:35.198,93206,-1.17,-0.54,-0.20,13.04,9270
16:32:35.201,93216,-1.23,-0.52,-0.19,13.53,9271
16:32:35.238,93226,-1.28,-0.51,-0.15,13.87,9272
16:32:35.238,93236,-1.36,-0.47,-0.10,14.43,9273
16:32:35.239,93246,-1.49,-0.43,-0.19,15.60,9274
16:32:35.241,93256,-1.55,-0.38,-0.27,16.24,9275
16:32:35.278,93266,-1.46,-0.47,-0.29,15.65,9276
16:32:35.281,93276,-1.28,-0.61,-0.17,14.28,9277
16:32:35.282,93286,-1.10,-0.77,-0.03,13.38,9278
16:32:35.285,93296,-0.92,-0.94,0.12,13.21,9279
16:32:35.294,93306,-0.80,-1.08,0.20,13.58,9280
16:32:35.305,93316,-0.73,-1.18,0.39,14.39,9281
16:32:35.312,93326,-0.71,-1.26,0.54,15.39,9282
16:32:35.321,93336,-0.70,-1.18,0.65,15.14,9283
16:32:35.331,93346,-0.65,-1.01,0.75,14.18,9284
16:32:35.343,93356,-0.59,-0.97,0.86,14.23,9285
16:32:35.351,93366,-0.45,-0.94,0.97,14.28,9286
16:32:35.361,93376,-0.24,-0.89,1.11,14.46,9287
16:32:35.372,93386,-0.13,-0.74,1.01,12.57,9288
16:32:35.381,93396,-0.30,-0.51,0.71,9.22,9289
16:32:35.392,93406,-0.45,-0.52,0.64,9.40,9290
16:32:35.402,93416,-0.55,-0.63,0.72,11.04,9291
16:32:35.415,93426,-0.54,-0.73,0.68,11.32,9292
16:32:35.424,93436,-0.41,-0.76,0.59,10.48,9293
16:32:35.436,93446,-0.22,-0.70,0.57,9.26,9294
16:32:35.442,93456,-0.05,-0.68,0.60,9.07,9295
16:32:35.452,93466,-0.03,-0.60,0.65,8.86,9296
16:32:35.461,93476,-0.07,-0.49,0.66,8.26,9297
16:32:35.473,93486,-0.17,-0.44,0.68,8.28,9298
16:32:35.485,93496,-0.28,-0.36,0.67,8.07,9299
16:32:35.491,93506,-0.34,-0.30,0.67,8.03,9300
16:32:35.503,93516,-0.32,-0.27,0.74,8.50,9301
16:32:35.513,93526,-0.28,-0.29,0.70,8.04,9302
16:32:35.522,93536,-0.19,-0.34,0.69,7.92,9303
16:32:35.531,93546,-0.15,-0.42,0.63,7.74,9304
16:32:35.545,93556,-0.24,-0.45,0.52,7.27,9305
16:32:35.562,93566,-0.40,-0.41,0.48,7.52,9306
16:32:35.563,93576,-0.47,-0.45,0.54,8.41,9307
16:32:35.579,93586,-0.43,-0.51,0.59,8.94,9308
16:32:35.581,93596,-0.35,-0.58,0.63,9.25,9309
16:32:35.593,93606,-0.30,-0.57,0.43,7.75,9310
16:32:35.603,93616,-0.28,-0.52,0.25,6.42,9311
16:32:35.611,93626,-0.42,-0.62,0.31,8.08,9312
16:32:35.621,93636,-0.60,-0.65,0.32,9.43,9313
16:32:35.631,93646,-0.68,-0.68,0.41,10.41,9314
16:32:35.643,93656,-0.75,-0.70,0.35,10.83,9315
16:32:35.653,93666,-0.71,-0.70,0.24,10.29,9316
16:32:35.661,93676,-0.70,-0.67,0.14,9.79,9317
16:32:35.678,93686,-0.69,-0.56,0.19,9.04,9318
16:32:35.682,93696,-0.66,-0.40,0.27,8.21,9319
16:32:35.691,93706,-0.75,-0.28,0.16,8.21,9320
16:32:35.701,93716,-0.94,-0.08,-0.12,9.54,9321
16:32:35.712,93726,-1.02,0.14,-0.34,10.82,9322
16:32:35.727,93736,-1.08,0.18,-0.55,12.25,9323
16:32:35.732,93746,-0.97,0.07,-0.78,12.44,9324
16:32:35.750,93756,-0.79,-0.04,-0.89,11.95,9325
16:32:35.750,93766,-0.67,-0.18,-0.85,11.02,9326
16:32:35.762,93776,-0.54,-0.36,-0.60,8.88,9327
16:32:35.772,93786,-0.45,-0.44,-0.38,7.31,9328
16:32:35.789,93796,-0.44,-0.57,-0.18,7.44,9329
16:32:35.791,93806,-0.60,-0.74,-0.13,9.65,9330
16:32:35.801,93816,-0.64,-0.80,-0.08,10.29,9331
16:32:35.812,93826,-0.93,-0.78,-0.07,12.12,9332
16:32:35.826,93836,-1.46,-0.78,-0.08,16.57,9333
16:32:35.831,93846,-1.87,-0.59,0.02,19.63,9334
16:32:35.862,93856,-1.80,-0.21,-0.06,18.10,9335
16:32:35.863,93866,-1.58,0.25,-0.30,16.30,9336
16:32:35.865,93876,-1.45,0.34,-0.32,15.24,9337
16:32:35.904,93886,-1.33,-0.11,-0.03,13.31,9338
16:32:35.905,93896,-1.08,-0.69,0.03,12.82,9339
16:32:35.905,93906,-0.80,-0.94,0.10,12.43,9340
16:32:35.907,93916,-0.50,-1.09,0.42,12.67,9341
16:32:35.945,93926,-0.35,-1.07,0.44,12.06,9342
16:32:35.946,93936,-0.24,-0.77,0.48,9.41,9343
16:32:35.947,93946,-0.37,-0.56,0.61,9.11,9344
16:32:35.948,93956,-0.72,-0.46,0.43,9.52,9345
16:32:35.950,93966,-0.95,-0.46,0.30,10.97,9346
16:32:35.987,93976,-1.08,-0.67,0.26,12.93,9347
16:32:35.987,93986,-0.92,-0.88,0.13,12.81,9348
16:32:35.989,93996,-0.62,-1.02,0.11,11.95,9349
16:32:35.991,94006,-0.42,-1.15,0.08,12.30,9350
16:32:36.028,94016,-0.35,-1.14,0.03,11.91,9351
16:32:36.029,94026,-0.51,-0.88,0.00,10.21,9352
16:32:36.030,94036,-0.67,-0.81,0.05,10.53,9353
16:32:36.031,94046,-0.82,-0.74,0.10,11.05,9354
16:32:36.069,94056,-0.94,-0.62,0.16,11.39,9355
16:32:36.070,94066,-0.97,-0.54,0.18,11.28,9356
16:32:36.070,94076,-0.88,-0.53,0.15,10.41,9357
16:32:36.072,94086,-0.78,-0.63,0.10,10.06,9358
16:32:36.097,94096,-0.74,-0.73,0.04,10.41,9359
16:32:36.097,94106,-0.70,-0.83,0.00,10.80,9360
16:32:36.101,94116,-0.68,-0.87,-0.02,11.00,9361
16:32:36.118,94126,-0.71,-0.82,-0.02,10.85,9362
16:32:36.121,94136,-0.72,-0.76,-0.01,10.44,9363
16:32:36.131,94146,-0.75,-0.72,-0.01,10.35,9364
16:32:36.141,94156,-0.75,-0.69,-0.01,10.21,9365
16:32:36.159,94166,-0.75,-0.68,-0.02,10.15,9366
16:32:36.162,94176,-0.76,-0.69,-0.06,10.26,9367
16:32:36.177,94186,-0.73,-0.74,-0.09,10.40,9368
16:32:36.181,94196,-0.67,-0.80,-0.08,10.43,9369
16:32:36.191,94206,-0.63,-0.83,-0.11,10.49,9370
16:32:36.207,94216,-0.62,-0.81,-0.12,10.31,9371
16:32:36.213,94226,-0.69,-0.73,-0.10,10.14,9372
16:32:36.221,94236,-0.82,-0.59,-0.04,10.14,9373
16:32:36.233,94246,-0.94,-0.47,-0.01,10.51,9374
16:32:36.243,94256,-1.01,-0.37,0.03,10.77,9375
16:32:36.254,94266,-1.04,-0.33,0.06,10.93,9376
16:32:36.264,94276,-1.08,-0.30,0.09,11.23,9377
16:32:36.275,94286,-1.10,-0.35,0.09,11.55,9378
16:32:36.281,94296,-0.96,-0.51,0.07,10.85,9379
16:32:36.291,94306,-0.85,-0.61,0.02,10.40,9380
16:32:36.302,94316,-0.78,-0.66,0.00,10.24,9381
16:32:36.314,94326,-0.74,-0.69,0.01,10.12,9382
16:32:36.322,94336,-0.74,-0.70,0.08,10.21,9383
16:32:36.332,94346,-0.80,-0.61,0.06,10.02,9384
16:32:36.343,94356,-0.77,-0.62,0.09,9.90,9385
16:32:36.354,94366,-0.79,-0.64,0.07,10.22,9386
16:32:36.362,94376,-0.78,-0.72,0.04,10.62,9387
16:32:36.379,94386,-0.75,-0.76,0.02,10.65,9388
16:32:36.381,94396,-0.72,-0.77,0.01,10.55,9389
16:32:36.395,94406,-0.80,-0.70,0.02,10.65,9390
16:32:36.400,94416,-0.89,-0.62,0.04,10.84,9391
16:32:36.411,94426,-0.90,-0.61,0.03,10.86,9392
16:32:36.424,94436,-0.83,-0.65,-0.02,10.51,9393
16:32:36.433,94446,-0.82,-0.64,-0.06,10.44,9394
16:32:36.442,94456,-0.81,-0.64,-0.07,10.33,9395
16:32:36.451,94466,-0.80,-0.65,-0.10,10.36,9396
16:32:36.467,94476,-0.83,-0.66,-0.10,10.65,9397
16:32:36.472,94486,-0.90,-0.63,-0.07,11.02,9398
16:32:36.482,94496,-0.96,-0.60,-0.06,11.36,9399
16:32:36.492,94506,-1.00,-0.59,-0.05,11.64,9400
16:32:36.506,94516,-1.09,-0.57,-0.06,12.28,9401
16:32:36.514,94526,-1.15,-0.54,-0.07,12.68,9402
16:32:36.522,94536,-1.22,-0.52,-0.08,13.26,9403
16:32:36.531,94546,-1.26,-0.51,-0.10,13.63,9404
16:32:36.545,94556,-1.28,-0.55,-0.08,13.98,9405
16:32:36.551,94566,-1.36,-0.60,-0.12,14.90,9406
16:32:36.561,94576,-1.46,-0.58,-0.23,15.91,9407
16:32:36.616,94586,-1.52,-0.54,-0.38,16.64,9408
16:32:36.616,94596,-1.42,-0.63,-0.37,15.96,9409
16:32:36.617,94606,-1.24,-0.78,-0.16,14.75,9410
16:32:36.618,94616,-1.09,-0.90,0.01,14.15,9411
16:32:36.619,94626,-0.97,-1.03,0.17,14.22,9412
16:32:36.657,94636,-0.91,-1.14,0.33,14.91,9413
16:32:36.657,94646,-0.81,-1.18,0.38,14.79,9414
16:32:36.658,94656,-0.71,-1.20,0.48,14.77,9415
16:32:36.659,94666,-0.57,-1.13,0.68,14.36,9416
16:32:36.661,94676,-0.56,-1.04,0.75,13.97,9417
16:32:36.698,94686,-0.51,-0.91,0.83,13.31,9418
16:32:36.698,94696,-0.35,-0.84,1.06,14.01,9419
16:32:36.699,94706,-0.13,-0.81,1.34,15.74,9420
16:32:36.701,94716,-0.05,-0.67,1.23,14.05,9421
16:32:36.739,94726,-0.24,-0.41,0.80,9.30,9422
16:32:36.739,94736,-0.42,-0.37,0.55,7.86,9423
16:32:36.740,94746,-0.46,-0.58,0.67,10.00,9424
16:32:36.742,94756,-0.40,-0.68,0.63,10.07,9425
16:32:36.779,94766,-0.29,-0.69,0.64,9.84,9426
16:32:36.780,94776,-0.14,-0.71,0.65,9.74,9427
16:32:36.781,94786,0.01,-0.70,0.63,9.36,9428
16:32:36.783,94796,0.02,-0.58,0.62,8.53,9429
16:32:36.794,94806,-0.08,-0.44,0.63,7.73,9430
16:32:36.805,94816,-0.23,-0.34,0.59,7.18,9431
16:32:36.815,94826,-0.32,-0.29,0.63,7.64,9432
16:32:36.829,94836,-0.38,-0.26,0.69,8.30,9433
16:32:36.859,94846,-0.42,-0.30,0.76,9.20,9434
16:32:36.859,94856,-0.40,-0.22,0.77,8.98,9435
16:32:36.860,94866,-0.32,-0.22,0.74,8.33,9436
16:32:36.862,94876,-0.21,-0.34,0.66,7.72,9437
16:32:36.872,94886,-0.26,-0.37,0.64,7.81,9438
16:32:36.890,94896,-0.36,-0.34,0.67,8.29,9439
16:32:36.892,94906,-0.36,-0.34,0.67,8.28,9440
16:32:36.909,94916,-0.30,-0.40,0.58,7.66,9441
16:32:36.911,94926,-0.29,-0.49,0.54,7.85,9442
16:32:36.922,94936,-0.30,-0.57,0.53,8.29,9443
16:32:36.935,94946,-0.33,-0.54,0.38,7.37,9444
16:32:36.942,94956,-0.42,-0.53,0.31,7.49,9445
16:32:36.950,94966,-0.54,-0.61,0.40,9.03,9446
16:32:36.966,94976,-0.66,-0.68,0.40,10.31,9447
16:32:36.971,94986,-0.72,-0.66,0.29,10.24,9448
16:32:36.981,94996,-0.78,-0.65,0.20,10.37,9449
16:32:36.993,95006,-0.75,-0.64,0.11,9.97,9450
16:32:37.006,95016,-0.73,-0.64,0.13,9.79,9451
16:32:37.011,95026,-0.71,-0.54,0.17,9.10,9452
16:32:37.021,95036,-0.76,-0.36,0.16,8.53,9453
16:32:37.038,95046,-0.88,-0.22,-0.11,9.11,9454
16:32:37.040,95056,-0.94,0.00,-0.34,9.99,9455
16:32:37.056,95066,-1.00,0.16,-0.56,11.55,9456
16:32:37.060,95076,-0.97,0.20,-0.77,12.55,9457
16:32:37.077,95086,-0.85,0.17,-0.94,12.80,9458
16:32:37.082,95096,-0.76,0.03,-0.93,12.05,9459
16:32:37.092,95106,-0.64,-0.21,-0.64,9.31,9460
16:32:37.106,95116,-0.50,-0.39,-0.39,7.48,9461
16:32:37.111,95126,-0.43,-0.59,-0.18,7.51,9462
16:32:37.141,95136,-0.59,-0.77,-0.09,9.77,9463
16:32:37.142,95146,-0.65,-0.86,-0.07,10.82,9464
16:32:37.143,95156,-0.98,-0.82,-0.08,12.79,9465
16:32:37.154,95166,-1.59,-0.71,-0.10,17.44,9466
16:32:37.164,95176,-2.08,-0.47,-0.08,21.35,9467
16:32:37.173,95186,-2.03,-0.11,-0.17,20.43,9468
16:32:37.184,95196,-1.57,0.23,-0.33,16.16,9469
16:32:37.194,95206,-1.04,-0.19,-0.28,10.97,9470
16:32:37.202,95216,-0.81,-0.67,-0.07,10.54,9471
16:32:37.213,95226,-0.63,-0.90,0.11,11.04,9472
16:32:37.227,95236,-0.58,-0.92,0.19,11.04,9473
16:32:37.232,95246,-0.45,-0.92,0.45,11.16,9474
16:32:37.250,95256,-0.50,-0.83,0.48,10.81,9475
16:32:37.251,95266,-0.55,-0.75,0.67,11.44,9476
16:32:37.261,95276,-0.68,-0.66,0.72,11.89,9477
16:32:37.271,95286,-0.87,-0.54,0.55,11.62,9478
16:32:37.281,95296,-1.02,-0.56,0.29,11.97,9479
16:32:37.291,95306,-0.89,-0.73,0.18,11.68,9480
16:32:37.307,95316,-0.78,-0.91,0.06,12.07,9481
16:32:37.312,95326,-0.65,-0.95,0.01,11.56,9482
16:32:37.343,95336,-0.56,-0.99,-0.03,11.36,9483
16:32:37.343,95346,-0.53,-0.98,-0.06,11.12,9484
16:32:37.344,95356,-0.60,-0.86,-0.05,10.54,9485
16:32:37.354,95366,-0.72,-0.75,0.01,10.38,9486
16:32:37.360,95376,-0.81,-0.66,0.07,10.50,9487
16:32:37.396,95386,-0.86,-0.62,0.11,10.65,9488
16:32:37.398,95396,-0.90,-0.63,0.10,11.05,9489
16:32:37.398,95406,-0.91,-0.64,0.10,11.13,9490
16:32:37.402,95416,-0.89,-0.62,0.09,10.85,9491
16:32:37.438,95426,-0.84,-0.63,0.06,10.47,9492
16:32:37.438,95436,-0.82,-0.63,0.05,10.35,9493
16:32:37.439,95446,-0.83,-0.64,0.04,10.47,9494
16:32:37.441,95456,-0.82,-0.66,0.02,10.55,9495
16:32:37.479,95466,-0.80,-0.69,-0.01,10.51,9496
16:32:37.480,95476,-0.75,-0.70,-0.04,10.24,9497
16:32:37.482,95486,-0.73,-0.73,-0.05,10.30,9498
16:32:37.482,95496,-0.75,-0.71,-0.05,10.39,9499
16:32:37.520,95506,-0.79,-0.68,-0.02,10.46,9500
16:32:37.522,95516,-0.85,-0.64,0.00,10.65,9501
16:32:37.523,95526,-0.87,-0.59,0.00,10.53,9502
16:32:37.523,95536,-0.83,-0.59,0.01,10.18,9503
16:32:37.553,95546,-0.79,-0.62,-0.02,9.99,9504
16:32:37.553,95556,-0.76,-0.68,-0.07,10.22,9505
16:32:37.555,95566,-0.75,-0.75,-0.08,10.67,9506
16:32:37.590,95576,-0.76,-0.76,-0.09,10.82,9507
16:32:37.590,95586,-0.78,-0.71,-0.08,10.58,9508
16:32:37.591,95596,-0.80,-0.64,-0.07,10.28,9509
16:32:37.594,95606,-0.83,-0.61,-0.02,10.31,9510
16:32:37.605,95616,-0.85,-0.60,0.01,10.40,9511
16:32:37.614,95626,-0.86,-0.59,-0.00,10.44,9512
16:32:37.624,95636,-0.84,-0.61,-0.02,10.40,9513
16:32:37.632,95646,-0.84,-0.61,-0.06,10.40,9514
16:32:37.641,95656,-0.84,-0.61,-0.07,10.42,9515
16:32:37.654,95666,-0.88,-0.62,-0.07,10.77,9516
16:32:37.661,95676,-0.88,-0.56,-0.09,10.50,9517
16:32:37.670,95686,-0.87,-0.60,-0.10,10.62,9518
16:32:37.682,95696,-0.83,-0.64,-0.08,10.52,9519
16:32:37.692,95706,-0.79,-0.66,-0.12,10.37,9520
16:32:37.702,95716,-0.80,-0.63,-0.12,10.29,9521
16:32:37.719,95726,-0.80,-0.64,-0.10,10.26,9522
16:32:37.720,95736,-0.82,-0.62,-0.07,10.31,9523
16:32:37.737,95746,-0.84,-0.64,-0.06,10.60,9524
16:32:37.741,95756,-0.89,-0.63,-0.03,10.86,9525
16:32:37.758,95766,-0.95,-0.58,-0.01,11.11,9526
16:32:37.761,95776,-0.96,-0.54,0.01,11.00,9527
16:32:37.770,95786,-0.89,-0.57,-0.03,10.62,9528
16:32:37.781,95796,-0.87,-0.64,-0.04,10.76,9529
16:32:37.791,95806,-0.91,-0.65,-0.01,11.23,9530
16:32:37.803,95816,-0.96,-0.63,-0.00,11.49,9531
16:32:37.811,95826,-1.01,-0.61,-0.01,11.83,9532
16:32:37.821,95836,-1.05,-0.59,-0.03,12.05,9533
16:32:37.835,95846,-1.12,-0.53,-0.03,12.42,9534
16:32:37.841,95856,-1.25,-0.49,-0.14,13.48,9535
16:32:37.852,95866,-1.25,-0.50,-0.13,13.48,9536
16:32:37.861,95876,-1.34,-0.61,-0.36,15.17,9537
16:32:37.871,95886,-1.39,-0.72,-0.54,16.60,9538
16:32:37.882,95896,-1.47,-0.70,-0.52,17.13,9539
16:32:37.898,95906,-1.44,-0.67,-0.39,16.37,9540
16:32:37.900,95916,-1.35,-0.74,-0.29,15.68,9541
16:32:37.912,95926,-1.20,-0.87,-0.19,14.96,9542
16:32:37.928,95936,-1.04,-1.01,-0.08,14.50,9543
16:32:37.931,95946,-0.84,-1.13,0.11,14.13,9544
16:32:37.946,95956,-0.74,-1.23,0.26,14.55,9545
16:32:37.951,95966,-0.69,-1.25,0.42,14.93,9546
16:32:37.968,95976,-0.75,-1.21,0.57,15.28,9547
16:32:37.977,95986,-0.74,-1.11,0.75,15.35,9548
16:32:37.982,95996,-0.72,-0.91,0.95,14.96,9549
16:32:37.991,96006,-0.71,-0.88,0.80,13.79,9550
16:32:38.001,96016,-0.42,-0.85,1.21,15.39,9551
16:32:38.020,96026,-0.15,-0.84,1.52,17.44,9552
16:32:38.021,96036,-0.27,-0.60,1.07,12.56,9553
16:32:38.060,96046,-0.40,-0.37,0.64,8.41,9554
16:32:38.061,96056,-0.45,-0.46,0.70,9.53,9555
16:32:38.062,96066,-0.49,-0.66,0.65,10.51,9556
16:32:38.063,96076,-0.51,-0.83,0.44,10.68,9557
16:32:38.101,96086,-0.31,-0.85,0.46,10.19,9558
16:32:38.102,96096,-0.10,-0.81,0.60,10.14,9559
16:32:38.103,96106,0.01,-0.67,0.55,8.68,9560
16:32:38.104,96116,0.01,-0.57,0.59,8.22,9561
16:32:38.206,96126,-0.08,-0.45,0.65,7.96,9562
16:32:38.207,96136,-0.18,-0.37,0.71,8.21,9563
16:32:38.208,96146,-0.25,-0.28,0.75,8.36,9564
16:32:38.209,96156,-0.30,-0.21,0.79,8.69,9565
16:32:38.211,96166,-0.36,-0.14,0.75,8.40,9566
16:32:38.212,96176,-0.35,-0.14,0.71,7.98,9567
16:32:38.243,96186,-0.17,-0.24,0.75,8.05,9568
16:32:38.245,96196,-0.05,-0.38,0.68,7.80,9569
16:32:38.247,96206,-0.09,-0.47,0.51,6.98,9570
16:32:38.247,96216,-0.25,-0.47,0.49,7.19,9571
16:32:38.247,96226,-0.39,-0.53,0.55,8.55,9572
16:32:38.248,96236,-0.45,-0.61,0.53,9.20,9573
16:32:38.250,96246,-0.41,-0.62,0.41,8.52,9574
16:32:38.250,96256,-0.31,-0.66,0.31,7.94,9575
16:32:38.254,96266,-0.36,-0.81,0.28,9.31,9576
16:32:38.263,96276,-0.51,-0.90,0.25,10.68,9577
16:32:38.273,96286,-0.66,-0.75,0.17,10.16,9578
16:32:38.280,96296,-0.78,-0.45,0.13,9.15,9579
16:32:38.291,96306,-0.93,-0.28,0.19,9.91,9580
16:32:38.301,96316,-0.91,-0.20,0.33,9.85,9581
16:32:38.312,96326,-0.67,-0.35,0.39,8.48,9582
16:32:38.330,96336,-0.62,-0.29,-0.17,7.09,9583
16:32:38.332,96346,-0.58,0.07,-0.80,9.93,9584
16:32:38.343,96356,-0.50,0.29,-1.10,12.48,9585
16:32:38.351,96366,-0.53,0.30,-0.95,11.27,9586
16:32:38.365,96376,-0.60,-0.03,-0.66,8.91,9587
16:32:38.377,96386,-0.65,-0.36,-0.43,8.57,9588
16:32:38.385,96396,-0.39,-0.59,-0.18,7.33,9589
16:32:38.394,96406,-0.28,-0.66,-0.31,7.76,9590
16:32:38.421,96416,-0.83,-0.78,-0.39,12.08,9591
16:32:38.421,96426,-2.13,-1.04,-0.08,23.66,9592
16:32:38.423,96436,-2.13,-0.93,0.06,23.20,9593
16:32:38.431,96446,-2.13,-0.00,-0.44,21.70,9594
16:32:38.441,96456,-1.00,0.36,-0.87,13.76,9595
16:32:38.451,96466,-0.53,-0.34,-0.34,7.13,9596
16:32:38.466,96476,-0.44,-0.84,0.56,11.03,9597
16:32:38.471,96486,-0.42,-1.10,0.64,13.35,9598
16:32:38.480,96496,-0.20,-1.04,1.00,14.53,9599
16:32:38.492,96506,-0.10,-1.02,0.70,12.42,9600
16:32:38.505,96516,-0.22,-0.87,0.61,10.84,9601
16:32:38.511,96526,-0.61,-0.64,0.66,11.03,9602
16:32:38.520,96536,-1.03,-0.49,0.62,13.02,9603
16:32:38.531,96546,-1.31,-0.38,0.59,14.89,9604
16:32:38.541,96556,-1.28,-0.30,0.54,14.20,9605
16:32:38.554,96566,-1.02,-0.49,0.30,11.69,9606
16:32:38.561,96576,-0.68,-0.75,0.21,10.34,9607
16:32:38.571,96586,-0.49,-0.89,0.04,10.20,9608
16:32:38.586,96596,-0.47,-1.01,0.08,11.19,9609
16:32:38.591,96606,-0.44,-1.13,0.08,12.16,9610
16:32:38.606,96616,-0.46,-1.10,0.10,12.00,9611
16:32:38.621,96626,-0.54,-1.01,0.13,11.56,9612
16:32:38.622,96636,-0.65,-0.89,0.10,11.07,9613
16:32:38.631,96646,-0.75,-0.82,0.10,11.17,9614
16:32:38.641,96656,-0.88,-0.68,0.11,11.16,9615
16:32:38.654,96666,-1.01,-0.55,0.18,11.60,9616
16:32:38.661,96676,-1.07,-0.43,0.22,11.77,9617
16:32:38.672,96686,-1.06,-0.34,0.18,11.26,9618
16:32:38.682,96696,-0.94,-0.46,0.09,10.52,9619
16:32:38.695,96706,-0.85,-0.64,0.08,10.61,9620
16:32:38.701,96716,-0.73,-0.82,0.10,11.02,9621
16:32:38.718,96726,-0.61,-0.90,0.08,10.91,9622
16:32:38.722,96736,-0.57,-0.84,0.03,10.20,9623
16:32:38.735,96746,-0.64,-0.75,0.05,9.89,9624
16:32:38.745,96756,-0.76,-0.67,0.05,10.14,9625
16:32:38.755,96766,-0.86,-0.58,0.07,10.38,9626
16:32:38.793,96776,-0.92,-0.51,0.07,10.53,9627
16:32:38.798,96786,-0.92,-0.51,0.05,10.56,9628
16:32:38.835,96796,-0.87,-0.56,0.02,10.33,9629
16:32:38.837,96806,-0.81,-0.65,-0.01,10.42,9630
16:32:38.837,96816,-0.75,-0.73,-0.07,10.53,9631
16:32:38.839,96826,-0.71,-0.77,-0.11,10.56,9632
16:32:38.839,96836,-0.73,-0.76,-0.10,10.61,9633
16:32:38.840,96846,-0.79,-0.69,-0.10,10.55,9634
16:32:38.877,96856,-0.86,-0.64,-0.06,10.73,9635
16:32:38.877,96866,-0.87,-0.60,0.01,10.55,9636
16:32:38.879,96876,-0.84,-0.58,0.03,10.22,9637
16:32:38.881,96886,-0.76,-0.61,0.02,9.75,9638
16:32:38.881,96896,-0.69,-0.66,0.02,9.58,9639
16:32:38.919,96906,-0.69,-0.67,-0.01,9.64,9640
16:32:38.919,96916,-0.71,-0.66,-0.05,9.72,9641
16:32:38.920,96926,-0.75,-0.67,-0.01,10.06,9642
16:32:38.921,96936,-0.79,-0.68,0.05,10.47,9643
16:32:38.958,96946,-0.78,-0.72,0.13,10.70,9644
16:32:38.960,96956,-0.75,-0.70,0.16,10.40,9645
16:32:38.961,96966,-0.71,-0.69,0.09,9.94,9646
16:32:38.961,96976,-0.72,-0.67,0.06,9.86,9647
16:32:38.985,96986,-0.79,-0.64,0.06,10.14,9648
16:32:38.985,96996,-0.87,-0.58,0.05,10.50,9649
16:32:38.990,97006,-0.93,-0.58,0.00,10.96,9650
16:32:39.002,97016,-0.91,-0.60,-0.01,10.84,9651
16:32:39.012,97026,-0.83,-0.62,-0.05,10.42,9652
16:32:39.029,97036,-0.80,-0.65,-0.09,10.35,9653
16:32:39.031,97046,-0.80,-0.66,-0.10,10.42,9654
16:32:39.043,97056,-0.85,-0.64,-0.10,10.68,9655
16:32:39.055,97066,-0.89,-0.61,-0.11,10.84,9656
16:32:39.061,97076,-0.92,-0.57,-0.10,10.90,9657
16:32:39.073,97086,-0.94,-0.54,-0.12,10.92,9658
16:32:39.083,97096,-0.95,-0.57,-0.14,11.17,9659
16:32:39.095,97106,-1.00,-0.59,-0.12,11.62,9660
16:32:39.101,97116,-1.09,-0.56,-0.14,12.33,9661
16:32:39.113,97126,-1.12,-0.54,-0.16,12.49,9662
16:32:39.123,97136,-1.08,-0.54,-0.10,12.09,9663
16:32:39.131,97146,-1.12,-0.56,-0.02,12.47,9664
16:32:39.144,97156,-1.15,-0.54,-0.02,12.67,9665
16:32:39.153,97166,-1.15,-0.55,0.02,12.73,9666
16:32:39.164,97176,-1.22,-0.56,-0.04,13.45,9667
16:32:39.176,97186,-1.30,-0.53,-0.16,14.16,9668
16:32:39.181,97196,-1.35,-0.53,-0.25,14.72,9669
16:32:39.192,97206,-1.37,-0.59,-0.32,15.29,9670
16:32:39.201,97216,-1.29,-0.69,-0.21,14.84,9671
16:32:39.219,97226,-1.12,-0.86,0.01,14.10,9672
16:32:39.221,97236,-0.94,-1.00,0.21,13.87,9673
16:32:39.232,97246,-0.80,-1.09,0.36,14.00,9674
16:32:39.243,97256,-0.71,-1.10,0.48,13.95,9675
16:32:39.250,97266,-0.67,-1.03,0.61,13.73,9676
16:32:39.266,97276,-0.65,-0.91,0.73,13.38,9677
16:32:39.272,97286,-0.64,-0.79,0.84,13.15,9678
16:32:39.281,97296,-0.58,-0.70,0.86,12.53,9679
16:32:39.294,97306,-0.39,-0.67,1.12,13.60,9680
16:32:39.303,97316,-0.21,-0.71,1.24,14.47,9681
16:32:39.311,97326,-0.18,-0.57,0.99,11.57,9682
16:32:39.326,97336,-0.22,-0.42,0.65,8.04,9683
16:32:39.331,97346,-0.30,-0.48,0.49,7.48,9684
16:32:39.349,97356,-0.37,-0.68,0.48,9.08,9685
16:32:39.351,97366,-0.41,-0.85,0.50,10.67,9686
16:32:39.370,97376,-0.31,-0.90,0.64,11.47,9687
16:32:39.370,97386,-0.12,-0.83,0.62,10.44,9688
16:32:39.381,97396,0.01,-0.70,0.61,9.25,9689
16:32:39.390,97406,-0.04,-0.52,0.63,8.19,9690
16:32:39.401,97416,-0.20,-0.36,0.56,6.96,9691
16:32:39.411,97426,-0.34,-0.29,0.55,7.14,9692
16:32:39.422,97436,-0.45,-0.25,0.59,7.79,9693
16:32:39.455,97446,-0.48,-0.25,0.64,8.41,9694
16:32:39.455,97456,-0.42,-0.36,0.71,8.96,9695
16:32:39.457,97466,-0.31,-0.44,0.64,8.34,9696
16:32:39.465,97476,-0.28,-0.46,0.51,7.40,9697
16:32:39.477,97486,-0.31,-0.48,0.49,7.53,9698
16:32:39.529,97496,-0.42,-0.51,0.56,8.60,9699
16:32:39.565,97506,-0.49,-0.55,0.61,9.56,9700
16:32:39.566,97516,-0.50,-0.60,0.56,9.61,9701
16:32:39.568,97526,-0.43,-0.61,0.52,9.12,9702
16:32:39.570,97536,-0.39,-0.62,0.45,8.59,9703
16:32:39.571,97546,-0.38,-0.53,0.26,6.98,9704
16:32:39.610,97556,-0.43,-0.54,0.22,7.24,9705
16:32:39.610,97566,-0.56,-0.64,0.32,9.09,9706
16:32:39.610,97576,-0.65,-0.64,0.32,9.66,9707
16:32:39.610,97586,-0.66,-0.58,0.31,9.31,9708
16:32:39.612,97596,-0.72,-0.50,0.32,9.36,9709
16:32:39.613,97606,-0.81,-0.46,0.31,9.85,9710
16:32:39.614,97616,-0.88,-0.46,0.30,10.38,9711
16:32:39.641,97626,-0.89,-0.43,0.29,10.30,9712
16:32:39.642,97636,-0.91,-0.46,0.17,10.29,9713
16:32:39.643,97646,-0.91,-0.40,-0.03,9.91,9714
16:32:39.645,97656,-0.79,-0.31,-0.16,8.67,9715
16:32:39.680,97666,-0.77,-0.26,-0.23,8.43,9716
16:32:39.681,97676,-0.81,-0.24,-0.28,8.90,9717
16:32:39.682,97686,-0.84,-0.26,-0.39,9.59,9718
16:32:39.683,97696,-0.93,-0.25,-0.52,10.91,9719
16:32:39.722,97706,-0.89,-0.18,-0.62,11.01,9720
16:32:39.722,97716,-0.76,-0.13,-0.70,10.46,9721
16:32:39.723,97726,-0.70,-0.13,-0.66,9.75,9722
16:32:39.725,97736,-0.70,-0.20,-0.53,8.98,9723
16:32:39.750,97746,-0.71,-0.29,-0.38,8.54,9724
16:32:39.752,97756,-0.81,-0.46,-0.27,9.67,9725
16:32:39.753,97766,-0.76,-0.56,-0.18,9.59,9726
16:32:39.765,97776,-0.66,-0.56,-0.18,8.86,9727
16:32:39.775,97786,-0.91,-0.55,-0.20,10.78,9728
16:32:39.782,97796,-1.47,-0.48,-0.03,15.44,9729
16:32:39.791,97806,-1.92,-0.28,0.04,19.38,9730
16:32:39.801,97816,-2.02,0.09,-0.35,20.47,9731
16:32:39.811,97826,-1.60,0.29,-0.45,16.89,9732
16:32:39.822,97836,-1.13,-0.42,-0.41,12.76,9733
16:32:39.831,97846,-0.95,-0.88,-0.19,13.07,9734
16:32:39.841,97856,-0.66,-1.00,-0.02,11.98,9735
16:32:39.859,97866,-0.40,-0.86,0.26,9.87,9736
16:32:39.861,97876,-0.46,-0.80,0.27,9.61,9737
16:32:39.871,97886,-0.44,-0.72,0.37,9.25,9738
16:32:39.881,97896,-0.45,-0.79,0.49,10.34,9739
16:32:39.929,97906,-0.66,-0.74,0.58,11.54,9740
16:32:39.929,97916,-0.96,-0.62,0.53,12.54,9741
16:32:39.929,97926,-1.03,-0.52,0.39,12.17,9742
16:32:39.961,97936,-0.97,-0.60,0.16,11.57,9743
16:32:39.963,97946,-0.85,-0.70,0.06,11.09,9744
16:32:39.963,97956,-0.72,-0.84,-0.02,11.09,9745
16:32:39.965,97966,-0.66,-0.86,-0.08,10.82,9746
16:32:39.966,97976,-0.61,-0.85,-0.07,10.53,9747
16:32:39.971,97986,-0.67,-0.82,0.00,10.62,9748
16:32:39.988,97996,-0.79,-0.72,0.09,10.71,9749
16:32:39.991,98006,-0.83,-0.67,0.08,10.72,9750
16:32:40.001,98016,-0.87,-0.60,0.06,10.59,9751
16:32:40.011,98026,-0.84,-0.63,0.07,10.56,9752
16:32:40.025,98036,-0.81,-0.69,0.05,10.66,9753
16:32:40.031,98046,-0.76,-0.76,0.03,10.79,9754
16:32:40.041,98056,-0.74,-0.83,0.04,11.14,9755
16:32:40.053,98066,-0.75,-0.80,0.03,10.98,9756
16:32:40.063,98076,-0.74,-0.75,0.02,10.54,9757
16:32:40.073,98086,-0.76,-0.68,0.01,10.21,9758
16:32:40.089,98096,-0.80,-0.64,-0.01,10.24,9759
16:32:40.093,98106,-0.82,-0.63,-0.00,10.36,9760
16:32:40.104,98116,-0.79,-0.68,-0.00,10.47,9761
16:32:40.111,98126,-0.75,-0.74,-0.03,10.55,9762
16:32:40.125,98136,-0.70,-0.79,-0.03,10.52,9763
16:32:40.132,98146,-0.69,-0.78,0.00,10.44,9764
16:32:40.148,98156,-0.73,-0.73,0.01,10.31,9765
16:32:40.151,98166,-0.80,-0.64,0.02,10.24,9766
16:32:40.163,98176,-0.86,-0.56,0.01,10.29,9767
16:32:40.173,98186,-0.89,-0.52,0.02,10.33,9768
16:32:40.182,98196,-0.92,-0.52,0.03,10.57,9769
16:32:40.191,98206,-0.86,-0.57,0.03,10.31,9770
16:32:40.205,98216,-0.80,-0.66,0.01,10.31,9771
16:32:40.211,98226,-0.76,-0.68,0.01,10.24,9772
16:32:40.223,98236,-0.79,-0.66,0.00,10.27,9773
16:32:40.234,98246,-0.86,-0.60,-0.01,10.50,9774
16:32:40.241,98256,-0.90,-0.54,-0.02,10.46,9775
16:32:40.256,98266,-0.89,-0.53,-0.02,10.41,9776
16:32:40.298,98276,-0.84,-0.58,-0.00,10.27,9777
16:32:40.298,98286,-0.81,-0.62,0.00,10.19,9778
16:32:40.298,98296,-0.79,-0.67,-0.01,10.39,9779
16:32:40.299,98306,-0.80,-0.68,-0.02,10.48,9780
16:32:40.301,98316,-0.88,-0.60,-0.09,10.65,9781
16:32:40.329,98326,-0.89,-0.59,-0.08,10.71,9782
16:32:40.330,98336,-0.90,-0.58,-0.06,10.78,9783
16:32:40.332,98346,-0.88,-0.57,-0.06,10.47,9784
16:32:40.363,98356,-0.86,-0.58,-0.06,10.43,9785
16:32:40.363,98366,-0.83,-0.61,-0.09,10.32,9786
16:32:40.364,98376,-0.81,-0.64,-0.12,10.37,9787
16:32:40.404,98386,-0.78,-0.66,-0.11,10.24,9788
16:32:40.407,98396,-0.78,-0.67,-0.10,10.31,9789
16:32:40.407,98406,-0.79,-0.68,-0.07,10.49,9790
16:32:40.407,98416,-0.84,-0.64,-0.06,10.64,9791
16:32:40.445,98426,-0.88,-0.52,-0.04,10.26,9792
16:32:40.445,98436,-0.93,-0.47,-0.04,10.42,9793
16:32:40.447,98446,-0.96,-0.51,-0.07,10.88,9794
16:32:40.448,98456,-0.92,-0.65,-0.05,11.22,9795
16:32:40.451,98466,-0.96,-0.71,-0.03,11.96,9796
16:32:40.487,98476,-0.92,-0.74,-0.01,11.85,9797
16:32:40.487,98486,-0.91,-0.72,-0.03,11.64,9798
16:32:40.488,98496,-0.96,-0.66,-0.00,11.60,9799
16:32:40.492,98506,-0.99,-0.60,-0.00,11.59,9800
16:32:40.502,98516,-1.04,-0.56,-0.01,11.81,9801
16:32:40.511,98526,-1.10,-0.57,-0.03,12.38,9802
16:32:40.525,98536,-1.15,-0.54,-0.04,12.67,9803
16:32:40.531,98546,-1.22,-0.55,-0.07,13.40,9804
16:32:40.541,98556,-1.35,-0.57,-0.19,14.80,9805
16:32:40.551,98566,-1.42,-0.56,-0.22,15.45,9806
16:32:40.565,98576,-1.59,-0.56,-0.29,17.06,9807
16:32:40.574,98586,-1.55,-0.57,-0.34,16.83,9808
16:32:40.584,98596,-1.35,-0.68,-0.23,15.31,9809
16:32:40.590,98606,-1.13,-0.82,-0.10,14.06,9810
16:32:40.607,98616,-0.95,-0.98,0.06,13.71,9811
16:32:40.611,98626,-0.82,-1.10,0.21,13.94,9812
16:32:40.621,98636,-0.76,-1.17,0.34,14.38,9813
16:32:40.632,98646,-0.75,-1.18,0.49,14.85,9814
16:32:40.643,98656,-0.69,-1.16,0.63,14.88,9815
16:32:40.652,98666,-0.59,-0.96,0.71,13.30,9816
16:32:40.668,98676,-0.54,-0.84,0.73,12.37,9817
16:32:40.674,98686,-0.35,-0.78,0.98,13.02,9818
16:32:40.681,98696,-0.14,-0.78,1.34,15.61,9819
16:32:40.693,98706,-0.13,-0.63,1.24,13.96,9820
16:32:40.701,98716,-0.40,-0.35,0.77,9.37,9821
16:32:40.716,98726,-0.57,-0.28,0.60,8.74,9822
16:32:40.727,98736,-0.61,-0.47,0.64,9.96,9823
16:32:40.731,98746,-0.53,-0.67,0.61,10.51,9824
16:32:40.750,98756,-0.36,-0.81,0.61,10.77,9825
16:32:40.751,98766,-0.13,-0.77,0.66,10.26,9826
16:32:40.768,98776,0.03,-0.69,0.58,8.98,9827
16:32:40.771,98786,0.05,-0.60,0.60,8.56,9828
16:32:40.786,98796,-0.04,-0.48,0.63,7.93,9829
16:32:40.794,98806,-0.18,-0.35,0.56,6.85,9830
16:32:40.810,98816,-0.30,-0.33,0.60,7.46,9831
16:32:40.810,98826,-0.36,-0.31,0.68,8.24,9832
16:32:40.829,98836,-0.37,-0.32,0.73,8.81,9833
16:32:40.843,98846,-0.31,-0.34,0.76,8.93,9834
16:32:40.845,98856,-0.19,-0.36,0.66,7.80,9835
16:32:40.851,98866,-0.14,-0.39,0.59,7.22,9836
16:32:40.861,98876,-0.25,-0.44,0.61,7.92,9837
16:32:40.871,98886,-0.36,-0.47,0.69,9.11,9838
16:32:40.885,98896,-0.41,-0.49,0.71,9.59,9839
16:32:40.890,98906,-0.43,-0.53,0.59,9.01,9840
16:32:40.901,98916,-0.41,-0.49,0.49,8.03,9841
16:32:40.914,98926,-0.39,-0.46,0.48,7.71,9842
16:32:40.961,98936,-0.39,-0.41,0.37,6.70,9843
16:32:40.961,98946,-0.46,-0.53,0.37,7.94,9844
16:32:40.961,98956,-0.54,-0.72,0.39,9.83,9845
16:32:40.963,98966,-0.57,-0.76,0.30,10.01,9846
16:32:40.966,98976,-0.61,-0.73,0.25,9.85,9847
16:32:41.002,98986,-0.66,-0.66,0.23,9.57,9848
16:32:41.002,98996,-0.73,-0.62,0.21,9.86,9849
16:32:41.003,99006,-0.82,-0.55,0.22,10.12,9850
16:32:41.005,99016,-0.79,-0.46,0.30,9.66,9851
16:32:41.044,99026,-0.85,-0.34,0.05,9.16,9852
16:32:41.044,99036,-0.82,-0.06,-0.25,8.61,9853
16:32:41.044,99046,-0.85,0.10,-0.53,10.03,9854
16:32:41.045,99056,-0.91,0.11,-0.62,11.13,9855
16:32:41.084,99066,-0.94,0.06,-0.69,11.70,9856
16:32:41.085,99076,-0.87,-0.04,-0.79,11.73,9857
16:32:41.086,99086,-0.73,-0.19,-0.71,10.34,9858
16:32:41.086,99096,-0.72,-0.39,-0.61,10.22,9859
16:32:41.117,99106,-0.58,-0.52,-0.41,8.84,9860
16:32:41.118,99116,-0.48,-0.57,-0.31,8.05,9861
16:32:41.119,99126,-0.52,-0.53,-0.24,7.75,9862
16:32:41.121,99136,-0.96,-0.59,-0.24,11.57,9863
16:32:41.152,99146,-1.57,-0.58,0.05,16.71,9864
16:32:41.152,99156,-2.13,-0.44,0.02,21.71,9865
16:32:41.153,99166,-2.13,-0.00,0.06,21.26,9866
16:32:41.184,99176,-1.47,0.26,-0.14,15.04,9867
16:32:41.184,99186,-0.99,-0.22,-0.20,10.34,9868
16:32:41.185,99196,-0.77,-0.64,0.04,10.08,9869
16:32:41.196,99206,-0.53,-0.89,0.38,11.06,9870
16:32:41.215,99216,-0.36,-1.00,0.40,11.34,9871
16:32:41.229,99226,-0.23,-1.02,0.67,12.44,9872
16:32:41.230,99236,-0.26,-0.85,0.57,10.58,9873
16:32:41.232,99246,-0.55,-0.74,0.56,10.82,9874
16:32:41.245,99256,-0.82,-0.64,0.58,11.90,9875
16:32:41.250,99266,-1.07,-0.58,0.42,12.84,9876
16:32:41.264,99276,-1.15,-0.58,0.22,13.05,9877
16:32:41.274,99286,-0.95,-0.73,0.12,12.03,9878
16:32:41.282,99296,-0.74,-0.90,0.02,11.65,9879
16:32:41.292,99306,-0.53,-0.94,-0.04,10.76,9880
16:32:41.301,99316,-0.43,-0.97,-0.09,10.65,9881
16:32:41.319,99326,-0.49,-0.97,-0.05,10.83,9882
16:32:41.321,99336,-0.69,-0.84,0.06,10.90,9883
16:32:41.332,99346,-0.87,-0.68,0.12,11.07,9884
16:32:41.347,99356,-0.94,-0.51,0.13,10.81,9885
16:32:41.350,99366,-0.94,-0.51,0.14,10.78,9886
16:32:41.361,99376,-0.86,-0.60,0.11,10.52,9887
16:32:41.374,99386,-0.82,-0.67,0.09,10.67,9888
16:32:41.385,99396,-0.80,-0.75,0.12,11.04,9889
16:32:41.392,99406,-0.80,-0.76,0.14,11.13,9890
16:32:41.406,99416,-0.76,-0.74,0.12,10.71,9891
16:32:41.412,99426,-0.75,-0.74,0.09,10.58,9892
16:32:41.430,99436,-0.73,-0.74,0.06,10.41,9893
16:32:41.432,99446,-0.72,-0.72,0.02,10.22,9894
16:32:41.452,99456,-0.73,-0.73,-0.01,10.27,9895
16:32:41.453,99466,-0.74,-0.74,0.01,10.48,9896
16:32:41.461,99476,-0.77,-0.72,0.02,10.57,9897
16:32:41.477,99486,-0.81,-0.67,0.02,10.56,9898
16:32:41.487,99496,-0.83,-0.61,0.03,10.31,9899
16:32:41.492,99506,-0.85,-0.58,0.03,10.30,9900
16:32:41.503,99516,-0.85,-0.57,0.02,10.25,9901
16:32:41.513,99526,-0.83,-0.61,-0.01,10.26,9902
16:32:41.521,99536,-0.79,-0.67,-0.05,10.35,9903
16:32:41.532,99546,-0.77,-0.72,-0.06,10.53,9904
16:32:41.549,99556,-0.75,-0.74,-0.02,10.56,9905
16:32:41.550,99566,-0.76,-0.70,-0.00,10.38,9906
16:32:41.561,99576,-0.79,-0.64,0.01,10.18,9907
16:32:41.571,99586,-0.82,-0.58,0.01,10.05,9908
16:32:41.585,99596,-0.87,-0.53,0.01,10.18,9909
16:32:41.595,99606,-0.91,-0.52,-0.02,10.53,9910
16:32:41.601,99616,-0.92,-0.55,-0.02,10.74,9911
16:32:41.617,99626,-0.89,-0.60,-0.00,10.71,9912
16:32:41.622,99636,-0.86,-0.62,-0.03,10.56,9913
16:32:41.639,99646,-0.83,-0.63,-0.11,10.50,9914
16:32:41.641,99656,-0.88,-0.55,-0.11,10.41,9915
16:32:41.658,99666,-0.88,-0.54,-0.13,10.43,9916
16:32:41.661,99676,-0.91,-0.52,-0.15,10.58,9917
16:32:41.676,99686,-0.90,-0.52,-0.15,10.47,9918
16:32:41.684,99696,-0.84,-0.57,-0.17,10.28,9919
16:32:41.692,99706,-0.78,-0.63,-0.13,10.10,9920
16:32:41.728,99716,-0.74,-0.67,-0.10,10.03,9921
16:32:41.728,99726,-0.74,-0.70,-0.04,10.24,9922
16:32:41.729,99736,-0.75,-0.72,0.01,10.40,9923
16:32:41.730,99746,-0.77,-0.70,0.04,10.40,9924
16:32:41.769,99756,-0.79,-0.67,0.08,10.39,9925
16:32:41.769,99766,-0.77,-0.65,0.09,10.16,9926
16:32:41.770,99776,-0.78,-0.67,0.04,10.30,9927
16:32:41.772,99786,-0.82,-0.66,0.03,10.54,9928
16:32:41.809,99796,-0.88,-0.61,0.05,10.69,9929
16:32:41.810,99806,-0.90,-0.67,0.06,11.23,9930
16:32:41.811,99816,-0.87,-0.70,0.05,11.19,9931
16:32:41.813,99826,-0.88,-0.71,0.05,11.33,9932
16:32:41.852,99836,-0.93,-0.68,0.08,11.57,9933
16:32:41.852,99846,-0.99,-0.61,0.06,11.59,9934
16:32:41.853,99856,-1.01,-0.54,-0.00,11.46,9935
16:32:41.854,99866,-1.02,-0.51,-0.05,11.41,9936
16:32:41.885,99876,-1.03,-0.51,-0.10,11.54,9937
16:32:41.885,99886,-1.05,-0.56,-0.14,11.97,9938
16:32:41.887,99896,-1.11,-0.58,-0.15,12.58,9939
16:32:41.890,99906,-1.22,-0.60,-0.22,13.77,9940
16:32:41.919,99916,-1.26,-0.62,-0.27,14.30,9941
16:32:41.921,99926,-1.48,-0.58,-0.38,16.33,9942
16:32:41.922,99936,-1.54,-0.52,-0.43,16.81,9943
16:32:41.934,99946,-1.43,-0.57,-0.35,15.75,9944
16:32:41.941,99956,-1.33,-0.69,-0.14,15.04,9945
16:32:41.953,99966,-1.20,-0.77,-0.03,14.30,9946
16:32:41.969,99976,-1.01,-0.90,0.12,13.56,9947
16:32:41.971,99986,-0.86,-1.04,0.27,13.75,9948
16:32:41.989,99996,-0.72,-1.13,0.34,13.82,9949
16:32:41.991,100006,-0.64,-1.16,0.52,14.26,9950
16:32:42.002,100016,-0.56,-1.17,0.76,15.01,9951
16:32:42.018,100026,-0.53,-1.08,0.75,14.16,9952
16:32:42.022,100036,-0.53,-0.96,0.72,13.12,9953
16:32:42.040,100046,-0.48,-0.86,0.80,12.76,9954
16:32:42.041,100056,-0.28,-0.90,1.21,15.35,9955
16:32:42.053,100066,-0.07,-0.86,1.34,15.94,9956
16:32:42.062,100076,-0.10,-0.62,1.06,12.32,9957
16:32:42.078,100086,-0.23,-0.38,0.68,8.17,9958
16:32:42.081,100096,-0.35,-0.44,0.61,8.24,9959
16:32:42.097,100106,-0.38,-0.67,0.72,10.48,9960
16:32:42.112,100116,-0.40,-0.81,0.56,10.60,9961
16:32:42.113,100126,-0.27,-0.84,0.60,10.66,9962
16:32:42.129,100136,-0.11,-0.76,0.67,10.21,9963
16:32:42.131,100146,0.02,-0.68,0.58,8.92,9964
16:32:42.145,100156,0.07,-0.56,0.53,7.74,9965
16:32:42.152,100166,-0.01,-0.46,0.56,7.21,9966
16:32:42.167,100176,-0.15,-0.38,0.58,7.14,9967
16:32:42.171,100186,-0.27,-0.31,0.59,7.21,9968
16:32:42.181,100196,-0.35,-0.28,0.62,7.62,9969
16:32:42.199,100206,-0.41,-0.28,0.70,8.57,9970
16:32:42.202,100216,-0.41,-0.17,0.77,8.90,9971
16:32:42.214,100226,-0.45,-0.12,0.73,8.66,9972
16:32:42.225,100236,-0.36,-0.22,0.66,7.83,9973
16:32:42.234,100246,-0.33,-0.36,0.54,7.23,9974
16:32:42.262,100256,-0.36,-0.41,0.58,7.96,9975
16:32:42.262,100266,-0.37,-0.48,0.66,8.94,9976
16:32:42.272,100276,-0.38,-0.59,0.61,9.30,9977
16:32:42.273,100286,-0.38,-0.67,0.53,9.34,9978
16:32:42.289,100296,-0.34,-0.73,0.48,9.40,9979
16:32:42.291,100306,-0.34,-0.73,0.33,8.75,9980
16:32:42.306,100316,-0.36,-0.60,0.16,7.17,9981
16:32:42.312,100326,-0.49,-0.61,0.26,8.23,9982
16:32:42.322,100336,-0.65,-0.64,0.30,9.59,9983
16:32:42.334,100346,-0.74,-0.61,0.32,10.13,9984
16:32:42.341,100356,-0.79,-0.65,0.35,10.80,9985
16:32:42.352,100366,-0.81,-0.69,0.30,11.06,9986
16:32:42.362,100376,-0.78,-0.61,0.19,10.06,9987
16:32:42.373,100386,-0.73,-0.48,0.14,8.83,9988
16:32:42.385,100396,-0.73,-0.39,0.15,8.36,9989
16:32:42.390,100406,-0.81,-0.34,-0.01,8.83,9990
16:32:42.405,100416,-0.84,-0.25,-0.16,8.88,9991
16:32:42.412,100426,-0.86,-0.16,-0.32,9.29,9992
16:32:42.425,100436,-0.90,-0.09,-0.43,10.02,9993
16:32:42.432,100446,-0.92,-0.02,-0.56,10.77,9994
16:32:42.472,100456,-0.94,0.06,-0.70,11.79,9995
16:32:42.472,100466,-0.88,0.01,-0.70,11.24,9996
16:32:42.473,100476,-0.79,-0.11,-0.57,9.78,9997
16:32:42.475,100486,-0.69,-0.25,-0.46,8.71,9998
16:32:42.516,100496,-0.59,-0.37,-0.32,7.66,9999
16:32:42.516,100506,-0.55,-0.42,-0.19,7.18,10000
16:32:42.517,100516,-0.65,-0.51,-0.13,8.35,10001
16:32:42.518,100526,-0.83,-0.59,-0.07,10.18,10002
16:32:42.595,100536,-0.94,-0.70,-0.02,11.71,10003
16:32:42.596,100546,-1.18,-0.67,-0.05,13.55,10004
16:32:42.597,100556,-1.49,-0.51,-0.10,15.77,10005
16:32:42.598,100566,-1.66,-0.34,-0.14,17.02,10006
16:32:42.599,100576,-1.68,-0.19,-0.11,16.99,10007
16:32:42.601,100586,-1.49,-0.05,-0.24,15.15,10008
16:32:42.637,100596,-1.20,-0.42,-0.23,12.96,10009
16:32:42.637,100606,-0.88,-0.84,-0.08,12.20,10010
16:32:42.638,100616,-0.65,-0.84,0.11,10.70,10011
16:32:42.639,100626,-0.66,-0.76,0.14,10.17,10012
16:32:42.642,100636,-0.54,-0.80,0.37,10.35,10013
16:32:42.642,100646,-0.51,-0.83,0.42,10.59,10014
16:32:42.642,100656,-0.57,-0.78,0.38,10.32,10015
16:32:42.673,100666,-0.64,-0.68,0.38,10.12,10016
16:32:42.673,100676,-0.67,-0.61,0.36,9.74,10017
16:32:42.673,100686,-0.96,-0.58,0.27,11.52,10018
16:32:42.684,100696,-1.05,-0.59,0.16,12.20,10019
16:32:42.692,100706,-0.96,-0.67,0.14,11.77,10020
16:32:42.702,100716,-0.84,-0.72,0.11,11.07,10021
16:32:42.716,100726,-0.73,-0.76,0.08,10.54,10022
16:32:42.721,100736,-0.67,-0.79,0.04,10.35,10023
16:32:42.732,100746,-0.64,-0.81,0.04,10.30,10024
16:32:42.745,100756,-0.67,-0.77,0.02,10.23,10025
16:32:42.752,100766,-0.72,-0.77,0.01,10.54,10026
16:32:42.768,100776,-0.74,-0.77,0.04,10.64,10027
16:32:42.771,100786,-0.76,-0.76,0.05,10.71,10028
16:32:42.786,100796,-0.74,-0.77,0.08,10.74,10029
16:32:42.791,100806,-0.74,-0.78,0.09,10.82,10030
16:32:42.801,100816,-0.75,-0.76,0.11,10.76,10031
16:32:42.812,100826,-0.78,-0.69,0.10,10.49,10032
16:32:42.821,100836,-0.81,-0.64,0.09,10.36,10033
16:32:42.835,100846,-0.84,-0.63,0.08,10.54,10034
16:32:42.845,100856,-0.82,-0.64,0.04,10.41,10035
16:32:42.853,100866,-0.78,-0.68,0.04,10.33,10036
16:32:42.862,100876,-0.75,-0.71,0.03,10.33,10037
16:32:42.877,100886,-0.74,-0.73,0.05,10.40,10038
16:32:42.881,100896,-0.76,-0.72,0.05,10.46,10039
16:32:42.899,100906,-0.76,-0.70,0.03,10.30,10040
16:32:42.901,100916,-0.78,-0.64,-0.01,10.09,10041
16:32:42.912,100926,-0.83,-0.62,-0.04,10.41,10042
16:32:42.921,100936,-0.87,-0.61,-0.06,10.66,10043
16:32:42.931,100946,-0.85,-0.61,-0.07,10.47,10044
16:32:42.941,100956,-0.81,-0.63,-0.06,10.28,10045
16:32:42.958,100966,-0.79,-0.68,-0.02,10.41,10046
16:32:42.962,100976,-0.77,-0.71,-0.01,10.48,10047
16:32:42.975,100986,-0.77,-0.69,-0.00,10.32,10048
16:32:42.985,100996,-0.79,-0.65,0.04,10.30,10049
16:32:42.991,101006,-0.81,-0.60,0.02,10.11,10050
16:32:43.001,101016,-0.83,-0.59,-0.04,10.19,10051
16:32:43.015,101026,-0.84,-0.60,-0.03,10.27,10052
16:32:43.023,101036,-0.86,-0.61,0.00,10.54,10053
16:32:43.037,101046,-0.89,-0.61,0.04,10.80,10054
16:32:43.041,101056,-0.85,-0.60,0.04,10.38,10055
16:32:43.059,101066,-0.77,-0.60,0.01,9.82,10056
16:32:43.060,101076,-0.76,-0.59,-0.01,9.63,10057
16:32:43.072,101086,-0.77,-0.59,-0.06,9.74,10058
16:32:43.081,101096,-0.78,-0.63,-0.05,10.03,10059
16:32:43.094,101106,-0.76,-0.67,-0.06,10.15,10060
16:32:43.103,101116,-0.73,-0.70,-0.08,10.11,10061
16:32:43.117,101126,-0.76,-0.72,-0.06,10.47,10062
16:32:43.122,101136,-0.80,-0.70,-0.04,10.66,10063
16:32:43.138,101146,-0.81,-0.66,-0.04,10.48,10064
16:32:43.141,101156,-0.82,-0.61,0.00,10.24,10065
16:32:43.152,101166,-0.87,-0.55,0.01,10.27,10066
16:32:43.162,101176,-0.91,-0.48,0.01,10.32,10067
16:32:43.171,101186,-0.97,-0.48,-0.01,10.79,10068
16:32:43.224,101196,-0.91,-0.57,-0.03,10.77,10069
16:32:43.224,101206,-0.92,-0.66,-0.05,11.29,10070
16:32:43.225,101216,-0.97,-0.65,-0.05,11.72,10071
16:32:43.226,101226,-1.04,-0.63,-0.05,12.15,10072
16:32:43.227,101236,-1.09,-0.57,-0.06,12.36,10073
16:32:43.265,101246,-1.14,-0.53,-0.07,12.62,10074
16:32:43.265,101256,-1.11,-0.56,-0.08,12.50,10075
16:32:43.267,101266,-1.11,-0.65,-0.07,12.86,10076
16:32:43.267,101276,-1.17,-0.67,-0.13,13.58,10077
16:32:43.305,101286,-1.27,-0.67,-0.20,14.47,10078
16:32:43.306,101296,-1.41,-0.67,-0.28,15.90,10079
16:32:43.307,101306,-1.48,-0.68,-0.34,16.64,10080
16:32:43.308,101316,-1.52,-0.71,-0.39,17.21,10081
16:32:43.311,101326,-1.34,-0.85,-0.24,16.05,10082
16:32:43.347,101336,-1.17,-0.99,-0.04,15.38,10083
16:32:43.347,101346,-0.97,-1.12,0.10,14.86,10084
16:32:43.348,101356,-0.80,-1.22,0.31,14.93,10085
16:32:43.351,101366,-0.71,-1.25,0.44,15.03,10086
16:32:43.389,101376,-0.62,-1.23,0.61,15.07,10087
16:32:43.389,101386,-0.59,-1.14,0.73,14.78,10088
16:32:43.390,101396,-0.55,-0.99,0.66,13.17,10089
16:32:43.391,101406,-0.44,-0.86,0.65,11.62,10090
16:32:43.402,101416,-0.24,-0.82,0.87,12.14,10091
16:32:43.414,101426,-0.04,-0.79,1.27,15.03,10092
16:32:43.442,101436,0.03,-0.69,1.30,14.67,10093
16:32:43.443,101446,-0.23,-0.42,0.95,10.60,10094
16:32:43.444,101456,-0.52,-0.34,0.61,8.70,10095
16:32:43.453,101466,-0.63,-0.44,0.58,9.60,10096
16:32:43.465,101476,-0.52,-0.65,0.61,10.30,10097
16:32:43.502,101486,-0.42,-0.70,0.63,10.27,10098
16:32:43.518,101496,-0.24,-0.65,0.67,9.66,10099
16:32:43.541,101506,-0.08,-0.58,0.68,8.98,10100
16:32:43.541,101516,-0.06,-0.49,0.63,8.05,10101
16:32:43.542,101526,-0.13,-0.40,0.63,7.52,10102
16:32:43.544,101536,-0.22,-0.33,0.65,7.67,10103
16:32:43.545,101546,-0.32,-0.25,0.66,7.78,10104
16:32:43.546,101556,-0.39,-0.21,0.70,8.33,10105
16:32:43.551,101566,-0.35,-0.24,0.73,8.45,10106
16:32:43.565,101576,-0.24,-0.33,0.74,8.40,10107
16:32:43.576,101586,-0.17,-0.38,0.61,7.40,10108
16:32:43.584,101596,-0.16,-0.44,0.58,7.45,10109
16:32:43.591,101606,-0.26,-0.44,0.58,7.75,10110
16:32:43.601,101616,-0.37,-0.42,0.58,8.11,10111
16:32:43.620,101626,-0.42,-0.42,0.57,8.27,10112
16:32:43.622,101636,-0.39,-0.47,0.59,8.48,10113
16:32:43.633,101646,-0.39,-0.50,0.57,8.52,10114
16:32:43.644,101656,-0.44,-0.51,0.48,8.31,10115
16:32:43.653,101666,-0.43,-0.54,0.39,7.94,10116
16:32:43.663,101676,-0.44,-0.56,0.33,7.89,10117
16:32:43.674,101686,-0.52,-0.69,0.35,9.29,10118
16:32:43.683,101696,-0.62,-0.85,0.33,11.07,10119
16:32:43.692,101706,-0.62,-0.88,0.22,10.95,10120
16:32:43.703,101716,-0.62,-0.76,0.05,9.79,10121
16:32:43.722,101726,-0.72,-0.67,0.07,9.82,10122
16:32:43.723,101736,-0.74,-0.58,0.30,9.86,10123
16:32:43.731,101746,-0.82,-0.52,0.16,9.88,10124
16:32:43.748,101756,-0.85,-0.22,-0.14,8.94,10125
16:32:43.751,101766,-0.86,0.07,-0.40,9.47,10126
16:32:43.763,101776,-0.95,0.27,-0.56,11.34,10127
16:32:43.779,101786,-0.99,0.38,-0.79,13.22,10128
16:32:43.781,101796,-0.95,0.29,-0.81,12.81,10129
16:32:43.797,101806,-0.77,0.03,-0.81,11.16,10130
16:32:43.802,101816,-0.58,-0.19,-0.63,8.75,10131
16:32:43.814,101826,-0.43,-0.43,-0.39,7.27,10132
16:32:43.858,101836,-0.35,-0.43,-0.12,5.70,10133
16:32:43.859,101846,-0.47,-0.56,-0.03,7.31,10134
16:32:43.859,101856,-0.69,-0.73,-0.01,10.05,10135
16:32:43.860,101866,-0.91,-0.88,0.05,12.67,10136
16:32:43.873,101876,-1.47,-1.07,0.12,18.26,10137
16:32:43.876,101886,-1.80,-0.75,0.09,19.53,10138
16:32:43.882,101896,-1.83,-0.26,-0.28,18.72,10139
16:32:43.891,101906,-1.59,0.12,-0.54,16.84,10140
16:32:43.908,101916,-1.08,-0.33,-0.43,12.13,10141
16:32:43.911,101926,-0.89,-0.81,-0.06,12.07,10142
16:32:43.925,101936,-0.76,-0.82,0.18,11.34,10143
16:32:43.931,101946,-0.89,-0.62,0.14,10.94,10144
16:32:43.972,101956,-0.72,-0.53,0.31,9.45,10145
16:32:43.973,101966,-0.41,-0.65,0.50,9.17,10146
16:32:43.974,101976,-0.61,-0.70,0.48,10.41,10147
16:32:43.974,101986,-0.63,-0.72,0.55,11.05,10148
16:32:44.014,101996,-0.67,-0.63,0.48,10.40,10149
16:32:44.014,102006,-0.77,-0.61,0.33,10.38,10150
16:32:44.014,102016,-0.82,-0.68,0.22,10.92,10151
16:32:44.016,102026,-0.85,-0.80,0.14,11.72,10152
16:32:44.053,102036,-0.78,-0.87,0.04,11.67,10153
16:32:44.056,102046,-0.65,-0.95,-0.00,11.54,10154
16:32:44.056,102056,-0.56,-0.98,-0.03,11.24,10155
16:32:44.057,102066,-0.54,-0.95,0.01,10.95,10156
16:32:44.095,102076,-0.61,-0.87,0.09,10.65,10157
16:32:44.097,102086,-0.70,-0.80,0.08,10.64,10158
16:32:44.099,102096,-0.76,-0.73,0.10,10.58,10159
16:32:44.099,102106,-0.83,-0.66,0.10,10.66,10160
16:32:44.100,102116,-0.88,-0.62,0.12,10.80,10161
16:32:44.137,102126,-0.95,-0.56,0.17,11.11,10162
16:32:44.138,102136,-0.97,-0.53,0.16,11.16,10163
16:32:44.140,102146,-0.88,-0.59,0.14,10.69,10164
16:32:44.142,102156,-0.81,-0.66,0.10,10.49,10165
16:32:44.165,102166,-0.76,-0.71,0.11,10.47,10166
16:32:44.166,102176,-0.73,-0.75,0.09,10.49,10167
16:32:44.172,102186,-0.73,-0.75,0.07,10.48,10168
16:32:44.184,102196,-0.77,-0.71,0.06,10.54,10169
16:32:44.191,102206,-0.80,-0.62,0.10,10.20,10170
16:32:44.206,102216,-0.81,-0.60,0.12,10.10,10171
16:32:44.210,102226,-0.79,-0.57,0.12,9.85,10172
16:32:44.221,102236,-0.81,-0.57,0.16,10.02,10173
16:32:44.232,102246,-0.85,-0.59,0.19,10.50,10174
16:32:44.249,102256,-0.83,-0.63,0.18,10.55,10175
16:32:44.251,102266,-0.78,-0.67,0.12,10.33,10176
16:32:44.265,102276,-0.71,-0.72,0.05,10.14,10177
16:32:44.271,102286,-0.68,-0.78,0.04,10.35,10178
16:32:44.286,102296,-0.67,-0.79,0.03,10.33,10179
16:32:44.291,102306,-0.69,-0.77,0.02,10.33,10180
16:32:44.307,102316,-0.73,-0.72,-0.00,10.26,10181
16:32:44.311,102326,-0.78,-0.69,0.00,10.38,10182
16:32:44.321,102336,-0.80,-0.66,0.02,10.39,10183
16:32:44.332,102346,-0.80,-0.66,0.07,10.43,10184
16:32:44.344,102356,-0.80,-0.64,0.06,10.26,10185
16:32:44.350,102366,-0.79,-0.63,0.07,10.13,10186
16:32:44.362,102376,-0.78,-0.64,0.05,10.10,10187
16:32:44.374,102386,-0.78,-0.63,0.03,10.07,10188
16:32:44.385,102396,-0.80,-0.60,-0.01,10.04,10189
16:32:44.392,102406,-0.83,-0.59,-0.03,10.20,10190
16:32:44.405,102416,-0.83,-0.58,-0.06,10.14,10191
16:32:44.411,102426,-0.80,-0.59,-0.08,9.96,10192
16:32:44.421,102436,-0.80,-0.63,-0.09,10.18,10193
16:32:44.439,102446,-0.79,-0.65,-0.11,10.27,10194
16:32:44.441,102456,-0.76,-0.69,-0.10,10.33,10195
16:32:44.452,102466,-0.79,-0.70,-0.10,10.57,10196
16:32:44.466,102476,-0.87,-0.66,-0.10,10.97,10197
16:32:44.474,102486,-0.89,-0.67,-0.07,11.16,10198
16:32:44.482,102496,-0.84,-0.69,-0.06,10.88,10199
16:32:44.496,102506,-0.81,-0.68,-0.08,10.55,10200
16:32:44.501,102516,-0.81,-0.66,-0.05,10.41,10201
16:32:44.517,102526,-0.86,-0.61,-0.02,10.58,10202
16:32:44.521,102536,-0.93,-0.55,-0.01,10.83,10203
16:32:44.532,102546,-0.97,-0.52,-0.01,10.95,10204
16:32:44.542,102556,-1.01,-0.50,-0.04,11.26,10205
16:32:44.552,102566,-1.05,-0.50,-0.07,11.63,10206
16:32:44.600,102576,-1.07,-0.49,-0.13,11.82,10207
16:32:44.600,102586,-1.03,-0.56,-0.15,11.82,10208
16:32:44.601,102596,-1.04,-0.67,-0.09,12.44,10209
16:32:44.602,102606,-1.13,-0.75,-0.07,13.54,10210
16:32:44.603,102616,-1.18,-0.70,-0.10,13.82,10211
16:32:44.641,102626,-1.23,-0.62,-0.13,13.83,10212
16:32:44.642,102636,-1.29,-0.54,-0.16,14.10,10213
16:32:44.644,102646,-1.34,-0.50,-0.16,14.38,10214
16:32:44.644,102656,-1.43,-0.51,-0.24,15.35,10215
16:32:44.683,102666,-1.31,-0.66,-0.16,14.78,10216
16:32:44.683,102676,-1.15,-0.84,0.01,14.19,10217
16:32:44.685,102686,-0.97,-0.99,0.19,13.96,10218
16:32:44.686,102696,-0.81,-1.09,0.34,13.98,10219
16:32:44.724,102706,-0.68,-1.15,0.43,14.06,10220
16:32:44.724,102716,-0.63,-1.14,0.54,14.09,10221
16:32:44.725,102726,-0.60,-1.16,0.79,15.28,10222
16:32:44.726,102736,-0.57,-1.09,0.77,14.56,10223
16:32:44.764,102746,-0.56,-1.01,0.70,13.44,10224
16:32:44.766,102756,-0.42,-0.87,0.76,12.33,10225
16:32:44.766,102766,-0.19,-0.87,1.03,13.65,10226
16:32:44.767,102776,-0.06,-0.86,1.17,14.52,10227
16:32:44.794,102786,-0.01,-0.71,0.98,12.13,10228
16:32:44.794,102796,-0.23,-0.56,0.67,9.05,10229
16:32:44.838,102806,-0.46,-0.57,0.52,8.98,10230
16:32:44.839,102816,-0.53,-0.71,0.58,10.60,10231
16:32:44.841,102826,-0.47,-0.81,0.60,11.08,10232
16:32:44.841,102836,-0.31,-0.78,0.63,10.50,10233
16:32:44.842,102846,-0.15,-0.67,0.63,9.33,10234
16:32:44.844,102856,-0.05,-0.57,0.64,8.58,10235
16:32:44.851,102866,-0.07,-0.50,0.67,8.33,10236
16:32:44.865,102876,-0.15,-0.40,0.69,8.07,10237
16:32:44.875,102886,-0.26,-0.31,0.64,7.53,10238
16:32:44.886,102896,-0.32,-0.24,0.63,7.47,10239
16:32:44.894,102906,-0.30,-0.21,0.69,7.81,10240
16:32:44.904,102916,-0.28,-0.25,0.71,8.04,10241
16:32:44.913,102926,-0.26,-0.38,0.67,8.07,10242
16:32:44.921,102936,-0.14,-0.47,0.62,7.90,10243
16:32:44.933,102946,-0.10,-0.54,0.50,7.47,10244
16:32:44.942,102956,-0.13,-0.59,0.53,8.07,10245
16:32:44.953,102966,-0.23,-0.62,0.60,8.92,10246
16:32:44.963,102976,-0.30,-0.62,0.63,9.36,10247
16:32:44.970,102986,-0.31,-0.62,0.65,9.50,10248
16:32:44.984,102996,-0.32,-0.59,0.47,8.23,10249
16:32:44.991,103006,-0.31,-0.41,0.28,5.88,10250
16:32:45.002,103016,-0.45,-0.46,0.35,7.36,10251
16:32:45.011,103026,-0.65,-0.56,0.40,9.46,10252
16:32:45.021,103036,-0.71,-0.57,0.41,9.99,10253
16:32:45.036,103046,-0.72,-0.60,0.40,10.17,10254
16:32:45.042,103056,-0.77,-0.67,0.35,10.79,10255
16:32:45.059,103066,-0.72,-0.66,0.31,10.25,10256
16:32:45.062,103076,-0.75,-0.65,0.25,10.20,10257
16:32:45.070,103086,-0.71,-0.60,0.20,9.50,10258
16:32:45.089,103096,-0.68,-0.55,0.25,9.10,10259
16:32:45.101,103106,-0.77,-0.43,0.04,8.86,10260
16:32:45.101,103116,-0.86,-0.30,-0.24,9.41,10261
16:32:45.110,103126,-0.88,-0.24,-0.39,9.90,10262
16:32:45.120,103136,-0.91,-0.17,-0.48,10.42,10263
16:32:45.159,103146,-0.89,-0.12,-0.62,10.95,10264
16:32:45.172,103156,-0.81,-0.08,-0.82,11.54,10265
16:32:45.173,103166,-0.73,-0.11,-0.92,11.76,10266
16:32:45.175,103176,-0.66,-0.20,-0.76,10.24,10267
16:32:45.192,103186,-0.62,-0.35,-0.51,8.77,10268
16:32:45.193,103196,-0.57,-0.46,-0.32,7.99,10269
16:32:45.195,103206,-0.59,-0.57,-0.17,8.36,10270
16:32:45.201,103216,-0.68,-0.65,-0.08,9.39,10271
16:32:45.211,103226,-0.63,-0.72,-0.01,9.57,10272
16:32:45.227,103236,-0.80,-0.67,0.01,10.42,10273
16:32:45.233,103246,-1.16,-0.61,0.03,13.11,10274
16:32:45.242,103256,-1.51,-0.55,0.07,16.10,10275
16:32:45.259,103266,-1.71,-0.45,0.11,17.70,10276
16:32:45.262,103276,-1.71,-0.18,-0.03,17.17,10277
16:32:45.276,103286,-1.50,0.09,-0.21,15.21,10278
16:32:45.280,103296,-1.28,-0.16,-0.20,13.10,10279
16:32:45.298,103306,-0.90,-0.71,0.10,11.52,10280
16:32:45.300,103316,-0.74,-0.93,-0.01,11.88,10281
16:32:45.311,103326,-0.56,-0.93,0.11,10.94,10282
16:32:45.326,103336,-0.46,-0.88,0.36,10.50,10283
16:32:45.334,103346,-0.70,-0.66,0.30,10.05,10284
16:32:45.368,103356,-0.80,-0.51,0.34,10.02,10285
16:32:45.369,103366,-0.74,-0.41,0.41,9.41,10286
16:32:45.397,103376,-0.97,-0.42,0.33,11.04,10287
16:32:45.397,103386,-1.02,-0.40,0.17,11.03,10288
16:32:45.400,103396,-0.88,-0.60,0.12,10.72,10289
16:32:45.402,103406,-0.76,-0.85,0.01,11.41,10290
16:32:45.402,103416,-0.59,-1.03,-0.01,11.85,10291
16:32:45.437,103426,-0.47,-1.15,0.01,12.46,10292
16:32:45.438,103436,-0.41,-1.19,0.00,12.61,10293
16:32:45.439,103446,-0.49,-0.98,-0.02,10.93,10294
16:32:45.440,103456,-0.66,-0.82,0.05,10.53,10295
16:32:45.478,103466,-0.78,-0.73,0.08,10.70,10296
16:32:45.479,103476,-0.87,-0.65,0.12,10.86,10297
16:32:45.480,103486,-0.91,-0.61,0.16,11.09,10298
16:32:45.482,103496,-0.91,-0.59,0.19,11.06,10299
16:32:45.520,103506,-0.84,-0.63,0.18,10.69,10300
16:32:45.520,103516,-0.80,-0.69,0.15,10.64,10301
16:32:45.522,103526,-0.78,-0.72,0.15,10.69,10302
16:32:45.523,103536,-0.76,-0.73,0.11,10.58,10303
16:32:45.562,103546,-0.73,-0.74,0.06,10.42,10304
16:32:45.562,103556,-0.72,-0.73,0.01,10.29,10305
16:32:45.563,103566,-0.72,-0.75,0.00,10.40,10306
16:32:45.564,103576,-0.73,-0.73,-0.01,10.37,10307
16:32:45.578,103586,-0.76,-0.70,-0.04,10.31,10308
16:32:45.589,103596,-0.79,-0.64,-0.02,10.21,10309
16:32:45.592,103606,-0.83,-0.62,0.01,10.35,10310
16:32:45.602,103616,-0.84,-0.61,-0.00,10.36,10311
16:32:45.617,103626,-0.80,-0.64,-0.04,10.26,10312
16:32:45.621,103636,-0.76,-0.69,-0.08,10.31,10313
16:32:45.636,103646,-0.71,-0.73,-0.09,10.24,10314
16:32:45.641,103656,-0.70,-0.74,-0.09,10.27,10315
16:32:45.657,103666,-0.74,-0.71,-0.06,10.25,10316
16:32:45.661,103676,-0.80,-0.64,-0.02,10.25,10317
16:32:45.676,103686,-0.86,-0.58,0.01,10.35,10318
16:32:45.680,103696,-0.89,-0.53,0.04,10.42,10319
16:32:45.691,103706,-0.91,-0.51,0.05,10.44,10320
16:32:45.707,103716,-0.93,-0.50,0.02,10.54,10321
16:32:45.711,103726,-0.92,-0.50,-0.05,10.52,10322
16:32:45.728,103736,-0.93,-0.54,-0.08,10.78,10323
16:32:45.737,103746,-0.87,-0.61,-0.04,10.64,10324
16:32:45.741,103756,-0.82,-0.65,-0.05,10.49,10325
16:32:45.751,103766,-0.81,-0.64,-0.08,10.35,10326
16:32:45.760,103776,-0.82,-0.64,-0.05,10.41,10327
16:32:45.772,103786,-0.85,-0.59,-0.02,10.35,10328
16:32:45.783,103796,-0.85,-0.56,-0.03,10.20,10329
16:32:45.791,103806,-0.82,-0.61,-0.01,10.22,10330
16:32:45.804,103816,-0.77,-0.66,-0.03,10.13,10331
16:32:45.811,103826,-0.72,-0.71,-0.03,10.10,10332
16:32:45.824,103836,-0.70,-0.74,-0.02,10.18,10333
16:32:45.831,103846,-0.72,-0.71,-0.02,10.08,10334
16:32:45.843,103856,-0.77,-0.68,0.00,10.31,10335
16:32:45.853,103866,-0.81,-0.66,0.01,10.48,10336
16:32:45.863,103876,-0.82,-0.63,-0.01,10.34,10337
16:32:45.873,103886,-0.81,-0.63,-0.03,10.24,10338
16:32:45.881,103896,-0.88,-0.63,-0.01,10.82,10339
16:32:45.891,103906,-0.96,-0.60,0.02,11.35,10340
16:32:45.908,103916,-1.00,-0.62,0.04,11.74,10341
16:32:45.909,103926,-0.99,-0.65,0.03,11.83,10342
16:32:45.925,103936,-1.00,-0.64,-0.03,11.88,10343
16:32:45.935,103946,-1.05,-0.60,-0.07,12.10,10344
16:32:45.943,103956,-1.08,-0.55,-0.10,12.16,10345
16:32:45.954,103966,-1.11,-0.51,-0.14,12.33,10346
16:32:45.964,103976,-1.18,-0.49,-0.17,12.92,10347
16:32:45.974,103986,-1.28,-0.50,-0.22,13.93,10348
16:32:45.986,103996,-1.40,-0.50,-0.30,15.18,10349
16:32:45.996,104006,-1.47,-0.50,-0.29,15.85,10350
16:32:46.002,104016,-1.53,-0.54,-0.37,16.65,10351
16:32:46.018,104026,-1.44,-0.58,-0.32,15.87,10352
16:32:46.019,104036,-1.34,-0.65,-0.24,15.07,10353
16:32:46.030,104046,-1.14,-0.80,-0.09,13.92,10354
16:32:46.049,104056,-0.92,-0.97,0.07,13.39,10355
16:32:46.052,104066,-0.76,-1.09,0.21,13.46,10356
16:32:46.064,104076,-0.66,-1.15,0.36,13.77,10357
16:32:46.070,104086,-0.60,-1.22,0.54,14.65,10358
16:32:46.135,104096,-0.59,-1.18,0.67,14.78,10359
16:32:46.181,104106,-0.66,-1.07,0.75,14.62,10360
16:32:46.221,104116,-0.62,-0.94,0.78,13.70,10361
16:32:46.221,104126,-0.47,-0.88,1.05,14.44,10362
16:32:46.223,104136,-0.26,-0.80,1.43,16.62,10363
16:32:46.224,104146,-0.32,-0.56,1.18,13.47,10364
16:32:46.225,104156,-0.42,-0.29,0.79,9.46,10365
16:32:46.227,104166,-0.42,-0.19,0.73,8.59,10366
16:32:46.262,104176,-0.45,-0.44,0.74,9.68,10367
16:32:46.264,104186,-0.47,-0.67,0.63,10.31,10368
16:32:46.266,104196,-0.41,-0.84,0.53,10.73,10369
16:32:46.266,104206,-0.20,-0.84,0.59,10.44,10370
16:32:46.266,104216,-0.02,-0.73,0.64,9.71,10371
16:32:46.266,104226,0.06,-0.63,0.56,8.51,10372
16:32:46.266,104236,-0.03,-0.52,0.59,7.83,10373
16:32:46.266,104246,-0.14,-0.42,0.60,7.47,10374
16:32:46.267,104256,-0.24,-0.41,0.60,7.70,10375
16:32:46.268,104266,-0.30,-0.31,0.64,7.77,10376
16:32:46.269,104276,-0.35,-0.21,0.66,7.74,10377
16:32:46.305,104286,-0.36,-0.32,0.56,7.38,10378
16:32:46.306,104296,-0.24,-0.39,0.58,7.41,10379
16:32:46.307,104306,-0.25,-0.43,0.55,7.40,10380
16:32:46.308,104316,-0.35,-0.42,0.49,7.35,10381
16:32:46.311,104326,-0.44,-0.40,0.49,7.71,10382
16:32:46.342,104336,-0.51,-0.41,0.46,7.99,10383
16:32:46.344,104346,-0.55,-0.40,0.45,8.13,10384
16:32:46.345,104356,-0.54,-0.39,0.48,8.18,10385
16:32:46.351,104366,-0.50,-0.42,0.50,8.23,10386
16:32:46.365,104376,-0.50,-0.52,0.47,8.60,10387
16:32:46.370,104386,-0.56,-0.70,0.46,10.06,10388
16:32:46.381,104396,-0.59,-0.88,0.49,11.69,10389
16:32:46.391,104406,-0.62,-0.97,0.39,12.16,10390
16:32:46.406,104416,-0.54,-0.84,0.16,10.15,10391
16:32:46.413,104426,-0.55,-0.72,0.06,9.08,10392
16:32:46.420,104436,-0.69,-0.59,0.10,9.15,10393
16:32:46.433,104446,-0.83,-0.54,0.21,10.11,10394
16:32:46.444,104456,-0.89,-0.49,0.18,10.31,10395
16:32:46.449,104466,-0.93,-0.26,-0.04,9.64,10396
16:32:46.465,104476,-0.94,-0.02,-0.25,9.71,10397
16:32:46.471,104486,-1.03,0.17,-0.47,11.47,10398
16:32:46.495,104496,-1.09,0.27,-0.68,13.13,10399
16:32:46.495,104506,-0.99,0.21,-0.91,13.57,10400
16:32:46.503,104516,-0.85,0.06,-1.08,13.77,10401
16:32:46.514,104526,-0.71,-0.10,-1.04,12.67,10402
16:32:46.523,104536,-0.61,-0.26,-0.60,8.94,10403
16:32:46.531,104546,-0.62,-0.37,-0.37,8.14,10404
16:32:46.542,104556,-0.55,-0.44,-0.11,7.19,10405
16:32:46.551,104566,-0.51,-0.48,0.06,7.01,10406
16:32:46.562,104576,-0.62,-0.54,0.12,8.32,10407
16:32:46.573,104586,-0.86,-0.65,0.08,10.82,10408
16:32:46.582,104596,-0.95,-0.73,0.10,12.03,10409
16:32:46.592,104606,-1.15,-0.77,0.02,13.86,10410
16:32:46.602,104616,-1.36,-0.76,-0.04,15.61,10411
16:32:46.613,104626,-1.66,-0.45,-0.07,17.22,10412
16:32:46.625,104636,-1.74,-0.11,-0.18,17.51,10413
16:32:46.633,104646,-1.50,0.08,-0.27,15.28,10414
16:32:46.641,104656,-1.25,-0.47,-0.18,13.44,10415
16:32:46.652,104666,-0.95,-0.75,-0.01,12.15,10416
16:32:46.662,104676,-0.79,-0.78,-0.06,11.10,10417
16:32:46.672,104686,-0.63,-0.84,0.18,10.63,10418
16:32:46.691,104696,-0.46,-0.82,0.44,10.37,10419
16:32:46.691,104706,-0.58,-0.72,0.40,10.03,10420
16:32:46.706,104716,-0.56,-0.64,0.40,9.38,10421
16:32:46.712,104726,-0.55,-0.59,0.55,9.74,10422
16:32:46.721,104736,-0.83,-0.54,0.35,10.51,10423
16:32:46.732,104746,-0.93,-0.62,0.20,11.37,10424
16:32:46.748,104756,-0.94,-0.76,0.12,12.15,10425
16:32:46.750,104766,-0.87,-0.84,0.05,12.11,10426
16:32:46.761,104776,-0.67,-0.91,0.01,11.32,10427
16:32:46.771,104786,-0.58,-0.93,-0.01,10.92,10428
16:32:46.782,104796,-0.59,-0.90,0.00,10.71,10429
16:32:46.792,104806,-0.66,-0.78,0.03,10.25,10430
16:32:46.804,104816,-0.74,-0.70,0.05,10.22,10431
16:32:46.812,104826,-0.81,-0.66,0.07,10.41,10432
16:32:46.821,104836,-0.85,-0.65,0.10,10.75,10433
16:32:46.830,104846,-0.85,-0.67,0.12,10.85,10434
16:32:46.877,104856,-0.81,-0.74,0.14,11.03,10435
16:32:46.878,104866,-0.76,-0.77,0.15,10.96,10436
16:32:46.879,104876,-0.73,-0.79,0.13,10.82,10437
16:32:46.880,104886,-0.74,-0.77,0.12,10.77,10438
16:32:46.912,104896,-0.79,-0.72,0.08,10.71,10439
16:32:46.913,104906,-0.79,-0.66,0.05,10.35,10440
16:32:46.914,104916,-0.77,-0.66,0.05,10.16,10441
16:32:46.916,104926,-0.74,-0.71,0.03,10.21,10442
16:32:46.953,104936,-0.71,-0.75,-0.01,10.33,10443
16:32:46.954,104946,-0.73,-0.76,-0.03,10.56,10444
16:32:46.956,104956,-0.77,-0.73,-0.02,10.60,10445
16:32:46.957,104966,-0.82,-0.65,0.02,10.47,10446
16:32:46.995,104976,-0.87,-0.58,0.04,10.44,10447
16:32:46.995,104986,-0.87,-0.54,0.05,10.24,10448
16:32:46.996,104996,-0.83,-0.58,0.03,10.15,10449
16:32:46.998,105006,-0.80,-0.61,0.02,10.05,10450
16:32:47.000,105016,-0.77,-0.69,0.02,10.32,10451
16:32:47.036,105026,-0.75,-0.72,0.05,10.40,10452
16:32:47.038,105036,-0.75,-0.70,0.07,10.29,10453
16:32:47.042,105046,-0.78,-0.67,0.07,10.29,10454
16:32:47.042,105056,-0.79,-0.64,0.08,10.24,10455
16:32:47.073,105066,-0.84,-0.59,0.04,10.27,10456
16:32:47.074,105076,-0.87,-0.56,0.02,10.38,10457
16:32:47.075,105086,-0.91,-0.56,0.02,10.64,10458
16:32:47.082,105096,-0.90,-0.57,0.04,10.67,10459
16:32:47.091,105106,-0.90,-0.58,0.05,10.73,10460
16:32:47.100,105116,-0.85,-0.62,0.04,10.55,10461
16:32:47.111,105126,-0.79,-0.65,0.00,10.26,10462
16:32:47.120,105136,-0.79,-0.68,-0.06,10.49,10463
16:32:47.138,105146,-0.81,-0.61,-0.09,10.21,10464
16:32:47.141,105156,-0.81,-0.62,-0.10,10.25,10465
16:32:47.155,105166,-0.79,-0.64,-0.10,10.18,10466
16:32:47.160,105176,-0.77,-0.65,-0.12,10.16,10467
16:32:47.173,105186,-0.79,-0.64,-0.12,10.27,10468
16:32:47.184,105196,-0.81,-0.65,-0.12,10.47,10469
16:32:47.191,105206,-0.83,-0.64,-0.13,10.55,10470
16:32:47.200,105216,-0.82,-0.62,-0.10,10.34,10471
16:32:47.217,105226,-0.82,-0.61,-0.07,10.24,10472
16:32:47.221,105236,-0.82,-0.61,-0.07,10.26,10473
16:32:47.232,105246,-0.84,-0.63,-0.07,10.47,10474
16:32:47.241,105256,-0.90,-0.60,-0.06,10.87,10475
16:32:47.250,105266,-0.97,-0.59,-0.06,11.35,10476
16:32:47.264,105276,-0.96,-0.59,-0.10,11.28,10477
16:32:47.273,105286,-0.95,-0.61,-0.13,11.38,10478
16:32:47.280,105296,-1.00,-0.60,-0.13,11.69,10479
16:32:47.298,105306,-1.04,-0.56,-0.12,11.92,10480
16:32:47.300,105316,-1.08,-0.54,-0.09,12.12,10481
16:32:47.312,105326,-1.11,-0.53,-0.05,12.32,10482
16:32:47.328,105336,-1.18,-0.53,-0.01,12.95,10483
16:32:47.330,105346,-1.30,-0.54,-0.06,14.06,10484
16:32:47.343,105356,-1.37,-0.54,-0.15,14.78,10485
16:32:47.353,105366,-1.35,-0.57,-0.09,14.72,10486
16:32:47.380,105376,-1.40,-0.59,-0.19,15.34,10487
16:32:47.382,105386,-1.35,-0.57,-0.22,14.79,10488
16:32:47.383,105396,-1.25,-0.62,-0.16,14.08,10489
16:32:47.394,105406,-1.07,-0.78,0.01,13.25,10490
16:32:47.401,105416,-0.92,-0.92,0.19,13.17,10491
16:32:47.412,105426,-0.79,-1.03,0.32,13.39,10492
16:32:47.422,105436,-0.68,-1.06,0.43,13.29,10493
16:32:47.435,105446,-0.60,-1.10,0.54,13.69,10494
16:32:47.442,105456,-0.52,-1.12,0.70,14.24,10495
16:32:47.464,105466,-0.52,-1.02,0.66,13.24,10496
16:32:47.465,105476,-0.44,-0.88,0.64,11.77,10497
16:32:47.480,105486,-0.28,-0.85,0.91,12.76,10498
16:32:47.482,105496,-0.14,-0.86,1.25,15.27,10499
16:32:47.498,105506,-0.18,-0.63,1.11,12.87,10500
16:32:47.500,105516,-0.33,-0.41,0.78,9.45,10501
16:32:47.514,105526,-0.42,-0.35,0.67,8.66,10502
16:32:47.521,105536,-0.46,-0.49,0.65,9.34,10503
16:32:47.542,105546,-0.44,-0.65,0.57,9.69,10504
16:32:47.543,105556,-0.36,-0.74,0.53,9.78,10505
16:32:47.552,105566,-0.20,-0.73,0.62,9.79,10506
16:32:47.566,105576,-0.10,-0.66,0.56,8.70,10507
16:32:47.571,105586,-0.06,-0.57,0.49,7.56,10508
16:32:47.611,105596,-0.12,-0.49,0.51,7.23,10509
16:32:47.612,105606,-0.21,-0.47,0.56,7.64,10510
16:32:47.614,105616,-0.28,-0.45,0.61,8.14,10511
16:32:47.614,105626,-0.35,-0.48,0.58,8.32,10512
16:32:47.653,105636,-0.32,-0.44,0.59,8.02,10513
16:32:47.653,105646,-0.27,-0.40,0.61,7.74,10514
16:32:47.654,105656,-0.28,-0.46,0.60,8.01,10515
16:32:47.656,105666,-0.31,-0.45,0.60,8.13,10516
16:32:47.690,105676,-0.39,-0.42,0.57,8.07,10517
16:32:47.690,105686,-0.47,-0.41,0.55,8.32,10518
16:32:47.692,105696,-0.53,-0.42,0.54,8.67,10519
16:32:47.693,105706,-0.56,-0.40,0.53,8.70,10520
16:32:47.731,105716,-0.53,-0.41,0.53,8.54,10521
16:32:47.732,105726,-0.52,-0.46,0.52,8.62,10522
16:32:47.733,105736,-0.48,-0.54,0.49,8.73,10523
16:32:47.734,105746,-0.48,-0.63,0.45,9.08,10524
16:32:47.774,105756,-0.49,-0.69,0.44,9.51,10525
16:32:47.774,105766,-0.56,-0.69,0.39,9.70,10526
16:32:47.774,105776,-0.62,-0.75,0.34,10.25,10527
16:32:47.775,105786,-0.62,-0.81,0.32,10.74,10528
16:32:47.829,105796,-0.65,-0.77,0.20,10.25,10529
16:32:47.842,105806,-0.73,-0.59,0.11,9.49,10530
16:32:47.842,105816,-0.80,-0.48,0.12,9.43,10531
16:32:47.843,105826,-0.85,-0.46,0.19,9.87,10532
16:32:47.860,105836,-0.87,-0.44,0.11,9.87,10533
16:32:47.860,105846,-0.85,-0.34,-0.07,9.21,10534
16:32:47.861,105856,-0.82,-0.23,-0.20,8.75,10535
16:32:47.862,105866,-0.82,-0.17,-0.26,8.80,10536
16:32:47.862,105876,-0.85,-0.14,-0.40,9.47,10537
16:32:47.876,105886,-0.86,-0.15,-0.51,10.12,10538
16:32:47.882,105896,-0.87,-0.12,-0.59,10.59,10539
16:32:47.893,105906,-0.81,-0.11,-0.58,10.00,10540
16:32:47.904,105916,-0.75,-0.21,-0.52,9.38,10541
16:32:47.911,105926,-0.68,-0.27,-0.39,8.34,10542
16:32:47.922,105936,-0.63,-0.38,-0.29,7.93,10543
16:32:47.936,105946,-0.64,-0.46,-0.17,8.05,10544
16:32:47.941,105956,-0.76,-0.59,-0.13,9.70,10545
16:32:47.956,105966,-0.72,-0.68,-0.10,9.92,10546
16:32:47.962,105976,-0.84,-0.69,-0.11,10.93,10547
16:32:47.972,105986,-1.16,-0.66,-0.10,13.41,10548
16:32:47.990,105996,-1.47,-0.53,-0.07,15.69,10549
16:32:47.990,106006,-1.67,-0.24,-0.22,16.99,10550
16:32:48.007,106016,-1.55,0.05,-0.41,16.04,10551
16:32:48.011,106026,-1.36,0.04,-0.34,14.00,10552
16:32:48.023,106036,-1.22,-0.49,-0.07,13.20,10553
16:32:48.031,106046,-0.97,-0.76,-0.10,12.38,10554
16:32:48.041,106056,-0.75,-0.83,-0.18,11.35,10555
16:32:48.059,106066,-0.51,-0.84,0.07,9.86,10556
16:32:48.062,106076,-0.47,-0.91,0.33,10.78,10557
16:32:48.083,106086,-0.54,-0.84,0.43,10.84,10558
16:32:48.083,106096,-0.69,-0.67,0.48,10.73,10559
16:32:48.099,106106,-0.68,-0.59,0.68,11.28,10560
16:32:48.100,106116,-0.70,-0.48,0.59,10.37,10561
16:32:48.115,106126,-0.96,-0.41,0.38,11.12,10562
16:32:48.128,106136,-1.02,-0.48,0.21,11.46,10563
16:32:48.130,106146,-0.95,-0.69,0.07,11.81,10564
16:32:48.142,106156,-0.82,-0.85,-0.02,11.77,10565
16:32:48.152,106166,-0.60,-1.00,-0.08,11.68,10566
16:32:48.162,106176,-0.48,-1.08,-0.09,11.89,10567
16:32:48.173,106186,-0.46,-1.10,-0.08,11.94,10568
16:32:48.181,106196,-0.59,-0.91,-0.00,10.85,10569
16:32:48.194,106206,-0.72,-0.74,0.04,10.36,10570
16:32:48.201,106216,-0.84,-0.60,0.05,10.31,10571
16:32:48.210,106226,-0.94,-0.51,0.07,10.67,10572
16:32:48.227,106236,-0.99,-0.48,0.13,11.06,10573
16:32:48.230,106246,-0.97,-0.53,0.16,11.17,10574
16:32:48.274,106256,-0.83,-0.67,0.13,10.77,10575
16:32:48.274,106266,-0.77,-0.75,0.12,10.84,10576
16:32:48.277,106276,-0.74,-0.78,0.12,10.82,10577
16:32:48.277,106286,-0.74,-0.76,0.10,10.67,10578
16:32:48.315,106296,-0.74,-0.72,0.08,10.35,10579
16:32:48.315,106306,-0.74,-0.69,0.07,10.18,10580
16:32:48.317,106316,-0.76,-0.68,0.07,10.25,10581
16:32:48.318,106326,-0.76,-0.69,0.07,10.32,10582
16:32:48.355,106336,-0.77,-0.69,0.06,10.36,10583
16:32:48.358,106346,-0.80,-0.67,0.06,10.43,10584
16:32:48.359,106356,-0.82,-0.65,0.05,10.48,10585
16:32:48.359,106366,-0.86,-0.61,0.04,10.53,10586
16:32:48.360,106376,-0.91,-0.56,0.05,10.67,10587
16:32:48.398,106386,-0.89,-0.53,0.07,10.41,10588
16:32:48.398,106396,-0.81,-0.58,0.02,9.98,10589
16:32:48.400,106406,-0.75,-0.64,-0.01,9.88,10590
16:32:48.401,106416,-0.73,-0.73,-0.03,10.29,10591
16:32:48.430,106426,-0.74,-0.76,-0.03,10.60,10592
16:32:48.430,106436,-0.78,-0.71,-0.00,10.60,10593
16:32:48.433,106446,-0.83,-0.64,0.01,10.47,10594
16:32:48.463,106456,-0.81,-0.62,0.02,10.20,10595
16:32:48.464,106466,-0.79,-0.62,0.00,10.01,10596
16:32:48.467,106476,-0.79,-0.65,0.01,10.22,10597
16:32:48.478,106486,-0.80,-0.66,0.00,10.34,10598
16:32:48.480,106496,-0.80,-0.64,-0.01,10.30,10599
16:32:48.499,106506,-0.82,-0.62,0.03,10.31,10600
16:32:48.500,106516,-0.82,-0.63,0.08,10.38,10601
16:32:48.520,106526,-0.79,-0.64,0.10,10.18,10602
16:32:48.521,106536,-0.76,-0.64,0.09,9.99,10603
16:32:48.531,106546,-0.75,-0.65,0.04,9.92,10604
16:32:48.544,106556,-0.73,-0.70,0.03,10.11,10605
16:32:48.552,106566,-0.74,-0.73,0.01,10.37,10606
16:32:48.562,106576,-0.73,-0.74,-0.02,10.44,10607
16:32:48.578,106586,-0.73,-0.74,-0.03,10.41,10608
16:32:48.579,106596,-0.73,-0.72,-0.02,10.24,10609
16:32:48.595,106606,-0.75,-0.67,-0.03,10.06,10610
16:32:48.601,106616,-0.79,-0.62,-0.02,10.04,10611
16:32:48.612,106626,-0.81,-0.59,-0.00,10.04,10612
16:32:48.621,106636,-0.82,-0.60,-0.05,10.18,10613
16:32:48.632,106646,-0.83,-0.63,-0.09,10.44,10614
16:32:48.663,106656,-0.88,-0.62,-0.10,10.84,10615
16:32:48.664,106666,-0.96,-0.59,-0.08,11.32,10616
16:32:48.667,106676,-1.00,-0.59,-0.06,11.61,10617
16:32:48.671,106686,-0.97,-0.63,-0.08,11.56,10618
16:32:48.681,106696,-0.95,-0.66,-0.08,11.57,10619
16:32:48.695,106706,-0.99,-0.61,-0.09,11.70,10620
16:32:48.700,106716,-1.02,-0.56,-0.11,11.71,10621
16:32:48.727,106726,-1.03,-0.53,-0.17,11.75,10622
16:32:48.730,106736,-1.05,-0.50,-0.20,11.80,10623
16:32:48.732,106746,-1.07,-0.52,-0.21,12.12,10624
16:32:48.742,106756,-1.13,-0.53,-0.17,12.61,10625
16:32:48.788,106766,-1.21,-0.53,-0.14,13.32,10626
16:32:48.790,106776,-1.34,-0.53,-0.19,14.55,10627
16:32:48.817,106786,-1.46,-0.49,-0.22,15.58,10628
16:32:48.818,106796,-1.59,-0.48,-0.30,16.84,10629
16:32:48.853,106806,-1.53,-0.43,-0.31,16.20,10630
16:32:48.854,106816,-1.35,-0.57,-0.24,14.86,10631
16:32:48.857,106826,-1.16,-0.78,-0.16,14.06,10632
16:32:48.864,106836,-0.95,-1.00,0.03,13.81,10633
16:32:48.865,106846,-0.77,-1.14,0.20,13.94,10634
16:32:48.865,106856,-0.65,-1.23,0.34,14.37,10635
16:32:48.867,106866,-0.52,-1.31,0.47,14.85,10636
16:32:48.869,106876,-0.44,-1.25,0.61,14.64,10637
16:32:48.872,106886,-0.53,-1.15,0.71,14.50,10638
16:32:48.881,106896,-0.54,-1.05,0.80,14.29,10639
16:32:48.892,106906,-0.50,-1.01,0.98,14.99,10640
16:32:48.902,106916,-0.36,-0.95,1.26,16.14,10641
16:32:48.914,106926,-0.26,-0.75,1.20,14.34,10642
16:32:48.922,106936,-0.21,-0.42,0.93,10.35,10643
16:32:48.931,106946,-0.20,-0.24,0.75,8.16,10644
16:32:48.942,106956,-0.29,-0.31,0.74,8.49,10645
16:32:48.957,106966,-0.39,-0.50,0.65,9.12,10646
16:32:48.961,106976,-0.46,-0.65,0.47,9.27,10647
16:32:48.980,106986,-0.34,-0.78,0.52,10.03,10648
16:32:48.982,106996,-0.16,-0.77,0.64,10.17,10649
16:32:49.004,107006,-0.05,-0.69,0.62,9.30,10650
16:32:49.005,107016,0.00,-0.55,0.56,7.87,10651
16:32:49.096,107026,-0.05,-0.49,0.55,7.38,10652
16:32:49.097,107036,-0.13,-0.37,0.58,7.02,10653
16:32:49.099,107046,-0.21,-0.33,0.61,7.25,10654
16:32:49.136,107056,-0.29,-0.35,0.68,8.22,10655
16:32:49.191,107066,-0.35,-0.36,0.73,8.89,10656
16:32:49.192,107076,-0.30,-0.36,0.69,8.33,10657
16:32:49.226,107086,-0.21,-0.39,0.55,7.09,10658
16:32:49.226,107096,-0.23,-0.40,0.47,6.60,10659
16:32:49.228,107106,-0.33,-0.40,0.48,7.04,10660
16:32:49.229,107116,-0.42,-0.47,0.47,7.85,10661
16:32:49.243,107126,-0.46,-0.52,0.48,8.45,10662
16:32:49.245,107136,-0.48,-0.52,0.52,8.82,10663
16:32:49.245,107146,-0.51,-0.52,0.54,9.12,10664
16:32:49.245,107156,-0.52,-0.47,0.36,7.85,10665
16:32:49.245,107166,-0.53,-0.53,0.29,8.09,10666
16:32:49.245,107176,-0.65,-0.71,0.34,10.20,10667
16:32:49.245,107186,-0.74,-0.83,0.39,11.74,10668
16:32:49.245,107196,-0.70,-0.79,0.25,10.85,10669
16:32:49.245,107206,-0.70,-0.76,0.10,10.35,10670
16:32:49.245,107216,-0.71,-0.69,0.10,10.01,10671
16:32:49.245,107226,-0.77,-0.58,0.11,9.69,10672
16:32:49.245,107236,-0.73,-0.46,0.18,8.81,10673
16:32:49.245,107246,-0.79,-0.27,-0.07,8.38,10674
16:32:49.247,107256,-0.84,0.02,-0.36,9.18,10675
16:32:49.252,107266,-0.94,0.22,-0.59,11.32,10676
16:32:49.262,107276,-0.94,0.19,-0.72,11.97,10677
16:32:49.275,107286,-0.89,0.09,-0.74,11.62,10678
16:32:49.286,107296,-0.82,-0.01,-0.72,10.88,10679
16:32:49.292,107306,-0.68,-0.20,-0.56,9.02,10680
16:32:49.303,107316,-0.51,-0.37,-0.37,7.31,10681
16:32:49.314,107326,-0.37,-0.47,-0.17,6.26,10682
16:32:49.324,107336,-0.49,-0.63,-0.09,8.06,10683
16:32:49.331,107346,-0.58,-0.72,-0.04,9.23,10684
16:32:49.341,107356,-0.76,-0.69,-0.01,10.23,10685
16:32:49.361,107366,-1.20,-0.81,0.04,14.45,10686
16:32:49.361,107376,-1.93,-0.78,0.15,20.83,10687
16:32:49.373,107386,-2.13,-0.36,-0.04,21.56,10688
16:32:49.384,107396,-1.84,0.16,-0.36,18.82,10689
16:32:49.393,107406,-1.24,0.08,-0.48,13.35,10690
16:32:49.402,107416,-0.95,-0.54,-0.17,11.04,10691
16:32:49.416,107426,-0.77,-0.81,0.06,11.23,10692
16:32:49.423,107436,-0.69,-0.82,0.18,10.85,10693
16:32:49.431,107446,-0.64,-0.73,0.26,10.04,10694
16:32:49.443,107456,-0.48,-0.68,0.46,9.54,10695
16:32:49.451,107466,-0.54,-0.68,0.58,10.46,10696
16:32:49.462,107476,-0.70,-0.67,0.55,11.14,10697
16:32:49.471,107486,-0.76,-0.58,0.52,10.82,10698
16:32:49.486,107496,-0.92,-0.53,0.41,11.37,10699
16:32:49.495,107506,-0.96,-0.58,0.34,11.75,10700
16:32:49.505,107516,-0.87,-0.71,0.24,11.51,10701
16:32:49.515,107526,-0.73,-0.79,0.15,10.88,10702
16:32:49.526,107536,-0.63,-0.89,0.03,10.89,10703
16:32:49.532,107546,-0.55,-0.94,-0.03,10.86,10704
16:32:49.541,107556,-0.55,-0.92,-0.01,10.75,10705
16:32:49.556,107566,-0.66,-0.86,0.01,10.84,10706
16:32:49.562,107576,-0.70,-0.78,0.05,10.53,10707
16:32:49.574,107586,-0.76,-0.74,0.05,10.62,10708
16:32:49.582,107596,-0.80,-0.74,0.07,10.95,10709
16:32:49.598,107606,-0.83,-0.72,0.11,11.01,10710
16:32:49.601,107616,-0.85,-0.65,0.13,10.78,10711
16:32:49.614,107626,-0.86,-0.64,0.13,10.77,10712
16:32:49.621,107636,-0.87,-0.63,0.13,10.79,10713
16:32:49.632,107646,-0.86,-0.62,0.12,10.62,10714
16:32:49.641,107656,-0.82,-0.67,0.09,10.58,10715
16:32:49.655,107666,-0.76,-0.73,0.05,10.52,10716
16:32:49.662,107676,-0.69,-0.79,0.00,10.48,10717
16:32:49.672,107686,-0.67,-0.79,0.02,10.39,10718
16:32:49.681,107696,-0.71,-0.76,0.02,10.43,10719
16:32:49.691,107706,-0.77,-0.69,0.01,10.36,10720
16:32:49.702,107716,-0.84,-0.62,0.04,10.48,10721
16:32:49.711,107726,-0.88,-0.58,0.08,10.57,10722
16:32:49.754,107736,-0.87,-0.55,0.11,10.35,10723
16:32:49.754,107746,-0.81,-0.60,0.07,10.06,10724
16:32:49.755,107756,-0.76,-0.66,0.03,10.05,10725
16:32:49.756,107766,-0.73,-0.73,-0.00,10.27,10726
16:32:49.795,107776,-0.74,-0.74,-0.02,10.40,10727
16:32:49.795,107786,-0.76,-0.72,-0.02,10.47,10728
16:32:49.796,107796,-0.77,-0.69,-0.01,10.35,10729
16:32:49.797,107806,-0.80,-0.64,0.00,10.27,10730
16:32:49.836,107816,-0.83,-0.62,0.02,10.38,10731
16:32:49.836,107826,-0.83,-0.61,0.03,10.29,10732
16:32:49.837,107836,-0.84,-0.62,0.04,10.42,10733
16:32:49.838,107846,-0.83,-0.62,0.02,10.37,10734
16:32:49.841,107856,-0.81,-0.63,0.03,10.29,10735
16:32:49.877,107866,-0.80,-0.65,0.03,10.32,10736
16:32:49.877,107876,-0.79,-0.66,0.02,10.27,10737
16:32:49.878,107886,-0.80,-0.66,0.01,10.37,10738
16:32:49.881,107896,-0.81,-0.58,0.00,10.02,10739
16:32:49.917,107906,-0.80,-0.61,-0.00,10.09,10740
16:32:49.917,107916,-0.81,-0.60,-0.01,10.06,10741
16:32:49.921,107926,-0.78,-0.61,-0.03,9.94,10742
16:32:49.921,107936,-0.78,-0.63,-0.06,10.01,10743
16:32:49.959,107946,-0.76,-0.66,-0.04,10.08,10744
16:32:49.959,107956,-0.75,-0.70,-0.01,10.24,10745
16:32:49.962,107966,-0.74,-0.71,0.02,10.29,10746
16:32:49.962,107976,-0.77,-0.67,0.04,10.26,10747
16:32:49.982,107986,-0.80,-0.65,0.05,10.33,10748
16:32:49.984,107996,-0.83,-0.65,0.09,10.56,10749
16:32:49.993,108006,-0.82,-0.66,0.08,10.54,10750
16:32:50.004,108016,-0.79,-0.65,0.03,10.19,10751
16:32:50.013,108026,-0.80,-0.64,0.00,10.27,10752
16:32:50.024,108036,-0.83,-0.65,0.01,10.55,10753
16:32:50.031,108046,-0.85,-0.66,-0.01,10.77,10754
16:32:50.041,108056,-0.87,-0.66,-0.04,10.89,10755
16:32:50.056,108066,-0.90,-0.65,-0.07,11.14,10756
16:32:50.062,108076,-0.94,-0.61,-0.09,11.25,10757
16:32:50.079,108086,-0.98,-0.58,-0.13,11.46,10758
16:32:50.079,108096,-1.00,-0.55,-0.16,11.56,10759
16:32:50.100,108106,-1.04,-0.53,-0.22,11.90,10760
16:32:50.102,108116,-1.10,-0.55,-0.25,12.55,10761
16:32:50.117,108126,-1.19,-0.58,-0.29,13.50,10762
16:32:50.133,108136,-1.27,-0.58,-0.31,14.33,10763
16:32:50.134,108146,-1.34,-0.57,-0.27,14.80,10764
16:32:50.140,108156,-1.41,-0.56,-0.17,15.25,10765
16:32:50.152,108166,-1.43,-0.50,-0.18,15.29,10766
16:32:50.169,108176,-1.36,-0.45,-0.17,14.46,10767
16:32:50.169,108186,-1.24,-0.58,-0.09,13.74,10768
16:32:50.189,108196,-1.11,-0.74,0.07,13.39,10769
16:32:50.189,108206,-0.95,-0.92,0.25,13.43,10770
16:32:50.205,108216,-0.80,-1.05,0.35,13.69,10771
16:32:50.213,108226,-0.69,-1.09,0.47,13.71,10772
16:32:50.220,108236,-0.62,-1.11,0.62,14.13,10773
16:32:50.238,108246,-0.56,-1.09,0.78,14.56,10774
16:32:50.240,108256,-0.56,-1.03,0.80,14.18,10775
16:32:50.256,108266,-0.53,-0.93,0.76,13.14,10776
16:32:50.261,108276,-0.47,-0.88,0.75,12.49,10777
16:32:50.276,108286,-0.28,-0.87,0.89,12.79,10778
16:32:50.282,108296,-0.04,-0.84,1.11,13.96,10779
16:32:50.293,108306,0.08,-0.69,1.00,12.16,10780
16:32:50.302,108316,-0.07,-0.48,0.73,8.81,10781
16:32:50.321,108326,-0.28,-0.51,0.61,8.46,10782
16:32:50.321,108336,-0.45,-0.65,0.59,9.84,10783
16:32:50.334,108346,-0.44,-0.72,0.62,10.44,10784
16:32:50.347,108356,-0.38,-0.72,0.65,10.46,10785
16:32:50.351,108366,-0.21,-0.66,0.58,9.02,10786
16:32:50.369,108376,-0.05,-0.61,0.59,8.51,10787
16:32:50.370,108386,-0.06,-0.53,0.61,8.13,10788
16:32:50.387,108396,-0.11,-0.43,0.63,7.69,10789
16:32:50.392,108406,-0.21,-0.34,0.68,7.95,10790
16:32:50.407,108416,-0.32,-0.26,0.65,7.75,10791
16:32:50.412,108426,-0.38,-0.21,0.62,7.60,10792
16:32:50.425,108436,-0.35,-0.24,0.66,7.89,10793
16:32:50.431,108446,-0.31,-0.33,0.71,8.46,10794
16:32:50.450,108456,-0.32,-0.34,0.66,8.09,10795
16:32:50.454,108466,-0.31,-0.40,0.60,7.81,10796
16:32:50.495,108476,-0.31,-0.45,0.58,7.91,10797
16:32:50.496,108486,-0.37,-0.48,0.57,8.35,10798
16:32:50.531,108496,-0.46,-0.49,0.58,8.88,10799
16:32:50.532,108506,-0.46,-0.52,0.59,9.11,10800
16:32:50.533,108516,-0.39,-0.62,0.57,9.28,10801
16:32:50.534,108526,-0.33,-0.70,0.49,9.15,10802
16:32:50.536,108536,-0.31,-0.73,0.39,8.80,10803
16:32:50.573,108546,-0.37,-0.65,0.31,8.14,10804
16:32:50.573,108556,-0.48,-0.59,0.23,8.00,10805
16:32:50.574,108566,-0.57,-0.63,0.23,8.77,10806
16:32:50.575,108576,-0.70,-0.64,0.32,9.99,10807
16:32:50.578,108586,-0.82,-0.66,0.40,11.25,10808
16:32:50.614,108596,-0.83,-0.67,0.39,11.34,10809
16:32:50.615,108606,-0.85,-0.73,0.36,11.78,10810
16:32:50.616,108616,-0.87,-0.67,0.14,11.09,10811
16:32:50.617,108626,-0.80,-0.55,-0.02,9.74,10812
16:32:50.656,108636,-0.75,-0.42,-0.05,8.61,10813
16:32:50.656,108646,-0.77,-0.30,-0.12,8.33,10814
16:32:50.657,108656,-0.78,-0.22,-0.28,8.61,10815
16:32:50.658,108666,-0.83,-0.17,-0.47,9.68,10816
16:32:50.661,108676,-0.90,-0.15,-0.67,11.30,10817
16:32:50.684,108686,-0.92,-0.05,-0.84,12.45,10818
16:32:50.684,108696,-0.90,0.05,-0.95,13.11,10819
16:32:50.692,108706,-0.79,0.04,-0.88,11.84,10820
16:32:50.709,108716,-0.74,-0.11,-0.64,9.80,10821
16:32:50.710,108726,-0.68,-0.28,-0.35,8.18,10822
16:32:50.723,108736,-0.64,-0.44,-0.24,8.09,10823
16:32:50.736,108746,-0.61,-0.52,-0.09,8.04,10824
16:32:50.743,108756,-0.62,-0.51,0.02,8.04,10825
16:32:50.754,108766,-0.74,-0.61,0.05,9.64,10826
16:32:50.763,108776,-0.93,-0.68,0.10,11.56,10827
16:32:50.774,108786,-0.99,-0.76,0.08,12.50,10828
16:32:50.785,108796,-1.10,-0.73,-0.04,13.25,10829
16:32:50.791,108806,-1.24,-0.63,-0.10,13.96,10830
16:32:50.801,108816,-1.38,-0.39,-0.17,14.45,10831
16:32:50.811,108826,-1.52,-0.06,-0.28,15.48,10832
16:32:50.822,108836,-1.60,0.01,-0.19,16.08,10833
16:32:50.832,108846,-1.58,-0.15,-0.02,15.86,10834
16:32:50.842,108856,-1.21,-0.52,-0.02,13.21,10835
16:32:50.854,108866,-0.87,-0.69,-0.05,11.11,10836
16:32:50.863,108876,-0.64,-0.75,0.03,9.89,10837
16:32:50.873,108886,-0.52,-0.81,0.18,9.82,10838
16:32:50.884,108896,-0.42,-0.90,0.37,10.60,10839
16:32:50.891,108906,-0.48,-0.90,0.30,10.62,10840
16:32:50.901,108916,-0.55,-0.80,0.25,10.04,10841
16:32:50.921,108926,-0.64,-0.67,0.25,9.56,10842
16:32:50.921,108936,-0.83,-0.57,0.23,10.34,10843
16:32:50.931,108946,-1.06,-0.46,0.15,11.62,10844
16:32:50.946,108956,-1.09,-0.50,0.09,12.03,10845
16:32:50.955,108966,-0.89,-0.69,0.04,11.26,10846
16:32:50.964,108976,-0.73,-0.81,-0.02,10.93,10847
16:32:50.971,108986,-0.61,-0.88,-0.05,10.72,10848
16:32:50.982,108996,-0.62,-0.86,-0.02,10.63,10849
16:32:50.993,109006,-0.70,-0.81,0.00,10.71,10850
16:32:51.010,109016,-0.76,-0.74,-0.00,10.65,10851
16:32:51.012,109026,-0.81,-0.70,-0.02,10.75,10852
16:32:51.022,109036,-0.83,-0.67,-0.03,10.61,10853
16:32:51.033,109046,-0.80,-0.70,0.02,10.67,10854
16:32:51.042,109056,-0.77,-0.74,0.08,10.68,10855
16:32:51.051,109066,-0.74,-0.78,0.09,10.80,10856
16:32:51.063,109076,-0.72,-0.79,0.10,10.81,10857
16:32:51.073,109086,-0.75,-0.73,0.10,10.50,10858
16:32:51.090,109096,-0.81,-0.67,0.11,10.60,10859
16:32:51.098,109106,-0.83,-0.63,0.11,10.53,10860
16:32:51.101,109116,-0.82,-0.63,0.09,10.38,10861
16:32:51.117,109126,-0.78,-0.67,0.09,10.35,10862
16:32:51.121,109136,-0.77,-0.67,0.08,10.26,10863
16:32:51.132,109146,-0.78,-0.67,0.08,10.33,10864
16:32:51.142,109156,-0.78,-0.70,0.09,10.49,10865
16:32:51.155,109166,-0.79,-0.69,0.09,10.51,10866
16:32:51.203,109176,-0.80,-0.66,0.08,10.37,10867
16:32:51.204,109186,-0.82,-0.61,0.04,10.29,10868
16:32:51.205,109196,-0.85,-0.58,-0.01,10.27,10869
16:32:51.241,109206,-0.85,-0.60,-0.03,10.44,10870
16:32:51.242,109216,-0.84,-0.64,-0.04,10.54,10871
16:32:51.244,109226,-0.79,-0.68,-0.05,10.45,10872
16:32:51.246,109236,-0.75,-0.71,-0.04,10.38,10873
16:32:51.247,109246,-0.74,-0.70,-0.04,10.20,10874
16:32:51.283,109256,-0.76,-0.66,-0.06,10.10,10875
16:32:51.283,109266,-0.79,-0.63,-0.05,10.12,10876
16:32:51.284,109276,-0.83,-0.61,-0.06,10.35,10877
16:32:51.285,109286,-0.85,-0.61,-0.05,10.46,10878
16:32:51.286,109296,-0.88,-0.60,-0.03,10.62,10879
16:32:51.325,109306,-0.87,-0.60,-0.05,10.60,10880
16:32:51.325,109316,-0.83,-0.61,-0.03,10.28,10881
16:32:51.326,109326,-0.81,-0.61,-0.01,10.10,10882
16:32:51.327,109336,-0.77,-0.61,-0.01,9.78,10883
16:32:51.366,109346,-0.79,-0.62,-0.02,10.00,10884
16:32:51.366,109356,-0.80,-0.63,-0.06,10.19,10885
16:32:51.368,109366,-0.79,-0.64,-0.08,10.19,10886
16:32:51.369,109376,-0.79,-0.68,-0.07,10.41,10887
16:32:51.371,109386,-0.81,-0.67,-0.07,10.50,10888
16:32:51.407,109396,-0.80,-0.68,-0.04,10.55,10889
16:32:51.410,109406,-0.77,-0.70,0.02,10.40,10890
16:32:51.411,109416,-0.74,-0.68,0.00,10.08,10891
16:32:51.422,109426,-0.76,-0.65,-0.01,9.99,10892
16:32:51.423,109436,-0.80,-0.60,0.01,9.99,10893
16:32:51.438,109446,-0.84,-0.60,-0.01,10.31,10894
16:32:51.439,109456,-0.88,-0.66,0.00,10.98,10895
16:32:51.461,109466,-0.95,-0.65,-0.00,11.51,10896
16:32:51.461,109476,-0.98,-0.64,0.00,11.70,10897
16:32:51.476,109486,-0.95,-0.69,-0.01,11.73,10898
16:32:51.481,109496,-0.96,-0.67,-0.05,11.73,10899
16:32:51.492,109506,-1.00,-0.63,-0.07,11.85,10900
16:32:51.507,109516,-1.05,-0.57,-0.09,12.01,10901
16:32:51.513,109526,-1.09,-0.57,-0.09,12.35,10902
16:32:51.521,109536,-1.15,-0.57,-0.08,12.87,10903
16:32:51.533,109546,-1.27,-0.56,-0.12,13.89,10904
16:32:51.549,109556,-1.38,-0.54,-0.19,14.97,10905
16:32:51.550,109566,-1.46,-0.52,-0.26,15.76,10906
16:32:51.561,109576,-1.49,-0.54,-0.26,16.10,10907
16:32:51.579,109586,-1.48,-0.52,-0.28,15.93,10908
16:32:51.579,109596,-1.36,-0.57,-0.20,14.85,10909
16:32:51.591,109606,-1.25,-0.71,-0.15,14.46,10910
16:32:51.603,109616,-1.05,-0.85,-0.03,13.50,10911
16:32:51.611,109626,-0.91,-0.99,0.09,13.50,10912
16:32:51.621,109636,-0.76,-1.10,0.28,13.68,10913
16:32:51.633,109646,-0.71,-1.15,0.43,14.15,10914
16:32:51.641,109656,-0.68,-1.13,0.56,14.33,10915
16:32:51.651,109666,-0.63,-1.00,0.66,13.58,10916
16:32:51.666,109676,-0.65,-0.81,0.68,12.36,10917
16:32:51.686,109686,-0.56,-0.74,0.83,12.47,10918
16:32:51.688,109696,-0.37,-0.76,1.11,13.98,10919
16:32:51.693,109706,-0.14,-0.79,1.45,16.60,10920
16:32:51.711,109716,-0.10,-0.64,1.22,13.82,10921
16:32:51.712,109726,-0.29,-0.38,0.75,8.91,10922
16:32:51.723,109736,-0.41,-0.39,0.61,8.30,10923
16:32:51.735,109746,-0.44,-0.62,0.66,10.05,10924
16:32:51.745,109756,-0.42,-0.79,0.60,10.75,10925
16:32:51.770,109766,-0.26,-0.85,0.54,10.41,10926
16:32:51.770,109776,-0.07,-0.78,0.64,10.13,10927
16:32:51.771,109786,0.07,-0.68,0.64,9.38,10928
16:32:51.799,109796,0.05,-0.55,0.60,8.16,10929
16:32:51.800,109806,-0.08,-0.41,0.56,7.02,10930
16:32:51.815,109816,-0.24,-0.33,0.56,6.93,10931
16:32:51.816,109826,-0.32,-0.31,0.62,7.69,10932
16:32:51.821,109836,-0.34,-0.24,0.72,8.33,10933
16:32:51.833,109846,-0.32,-0.22,0.72,8.22,10934
16:32:51.842,109856,-0.25,-0.31,0.67,7.80,10935
16:32:51.849,109866,-0.19,-0.38,0.57,7.07,10936
16:32:51.869,109876,-0.33,-0.39,0.46,6.81,10937
16:32:51.869,109886,-0.50,-0.35,0.43,7.48,10938
16:32:51.887,109896,-0.57,-0.40,0.49,8.52,10939
16:32:51.891,109906,-0.57,-0.43,0.55,8.96,10940
16:32:51.929,109916,-0.54,-0.46,0.57,9.08,10941
16:32:51.929,109926,-0.50,-0.54,0.57,9.26,10942
16:32:51.931,109936,-0.47,-0.62,0.48,9.08,10943
16:32:51.933,109946,-0.42,-0.61,0.26,7.83,10944
16:32:51.970,109956,-0.44,-0.71,0.21,8.67,10945
16:32:51.970,109966,-0.55,-0.80,0.28,10.10,10946
16:32:51.972,109976,-0.62,-0.85,0.33,11.02,10947
16:32:51.973,109986,-0.64,-0.83,0.28,10.83,10948
16:32:52.012,109996,-0.73,-0.78,0.18,10.81,10949
16:32:52.014,110006,-0.78,-0.69,0.18,10.58,10950
16:32:52.018,110016,-0.80,-0.57,0.09,9.88,10951
16:32:52.052,110026,-0.81,-0.34,-0.06,8.80,10952
16:32:52.053,110036,-0.81,-0.16,-0.23,8.55,10953
16:32:52.055,110046,-0.86,-0.04,-0.35,9.30,10954
16:32:52.056,110056,-0.92,0.01,-0.48,10.37,10955
16:32:52.058,110066,-1.00,0.06,-0.72,12.34,10956
16:32:52.086,110076,-0.97,0.07,-0.83,12.80,10957
16:32:52.087,110086,-0.88,0.03,-0.84,12.21,10958
16:32:52.088,110096,-0.80,-0.10,-0.63,10.23,10959
16:32:52.091,110106,-0.74,-0.24,-0.42,8.81,10960
16:32:52.122,110116,-0.66,-0.39,-0.26,8.14,10961
16:32:52.123,110126,-0.59,-0.49,-0.15,7.76,10962
16:32:52.124,110136,-0.66,-0.59,-0.06,8.88,10963
16:32:52.131,110146,-0.81,-0.70,-0.05,10.68,10964
16:32:52.145,110156,-0.87,-0.74,-0.00,11.46,10965
16:32:52.153,110166,-1.11,-0.66,-0.04,12.93,10966
16:32:52.163,110176,-1.44,-0.52,-0.12,15.39,10967
16:32:52.174,110186,-1.66,-0.19,-0.15,16.75,10968
16:32:52.180,110196,-1.66,0.06,-0.32,16.93,10969
16:32:52.194,110206,-1.50,0.13,-0.23,15.21,10970
16:32:52.203,110216,-1.17,-0.51,-0.07,12.80,10971
16:32:52.212,110226,-0.97,-0.78,-0.08,12.51,10972
16:32:52.223,110236,-0.75,-0.84,-0.10,11.31,10973
16:32:52.234,110246,-0.58,-0.79,0.07,9.84,10974
16:32:52.243,110256,-0.54,-0.84,0.41,10.82,10975
16:32:52.254,110266,-0.56,-0.78,0.56,11.13,10976
16:32:52.263,110276,-0.74,-0.65,0.43,10.81,10977
16:32:52.272,110286,-0.54,-0.54,0.55,9.40,10978
16:32:52.283,110296,-0.65,-0.53,0.54,9.94,10979
16:32:52.294,110306,-0.84,-0.52,0.35,10.47,10980
16:32:52.301,110316,-0.92,-0.65,0.26,11.55,10981
16:32:52.310,110326,-0.95,-0.76,0.15,12.27,10982
16:32:52.321,110336,-0.84,-0.87,-0.00,12.04,10983
16:32:52.331,110346,-0.63,-0.93,-0.06,11.30,10984
16:32:52.351,110356,-0.56,-0.97,-0.09,11.21,10985
16:32:52.352,110366,-0.57,-0.94,-0.05,10.98,10986
16:32:52.365,110376,-0.67,-0.81,-0.01,10.55,10987
16:32:52.371,110386,-0.78,-0.69,0.02,10.36,10988
16:32:52.381,110396,-0.86,-0.62,0.02,10.58,10989
16:32:52.392,110406,-0.89,-0.59,0.06,10.72,10990
16:32:52.402,110416,-0.89,-0.59,0.10,10.77,10991
16:32:52.413,110426,-0.82,-0.68,0.10,10.71,10992
16:32:52.422,110436,-0.77,-0.74,0.10,10.70,10993
16:32:52.432,110446,-0.75,-0.76,0.10,10.72,10994
16:32:52.441,110456,-0.75,-0.76,0.12,10.80,10995
16:32:52.459,110466,-0.74,-0.77,0.11,10.74,10996
16:32:52.459,110476,-0.72,-0.76,0.11,10.50,10997
16:32:52.476,110486,-0.72,-0.74,0.09,10.40,10998
16:32:52.500,110496,-0.73,-0.73,0.08,10.40,10999
16:32:52.505,110506,-0.77,-0.69,0.07,10.33,11000
16:32:52.507,110516,-0.80,-0.65,0.07,10.35,11001
16:32:52.511,110526,-0.85,-0.60,0.06,10.38,11002
16:32:52.523,110536,-0.88,-0.56,0.07,10.45,11003
16:32:52.533,110546,-0.88,-0.56,0.05,10.44,11004
16:32:52.542,110556,-0.85,-0.57,0.04,10.28,11005
16:32:52.553,110566,-0.83,-0.62,0.03,10.33,11006
16:32:52.561,110576,-0.80,-0.66,0.00,10.33,11007
16:32:52.577,110586,-0.77,-0.69,-0.01,10.37,11008
16:32:52.581,110596,-0.74,-0.72,-0.01,10.35,11009
16:32:52.593,110606,-0.74,-0.74,-0.00,10.44,11010
16:32:52.609,110616,-0.76,-0.70,0.02,10.35,11011
16:32:52.618,110626,-0.81,-0.64,0.01,10.31,11012
16:32:52.622,110636,-0.85,-0.59,0.01,10.37,11013
16:32:52.634,110646,-0.90,-0.53,0.00,10.47,11014
16:32:52.686,110656,-0.90,-0.53,0.01,10.46,11015
16:32:52.686,110666,-0.86,-0.58,0.00,10.36,11016
16:32:52.690,110676,-0.84,-0.61,-0.02,10.35,11017
16:32:52.690,110686,-0.86,-0.61,-0.07,10.56,11018
16:32:52.692,110696,-0.87,-0.59,-0.09,10.56,11019
16:32:52.726,110706,-0.87,-0.59,-0.08,10.53,11020
16:32:52.727,110716,-0.82,-0.61,-0.05,10.23,11021
16:32:52.728,110726,-0.78,-0.64,-0.06,10.17,11022
16:32:52.729,110736,-0.77,-0.64,-0.09,10.06,11023
16:32:52.730,110746,-0.79,-0.65,-0.13,10.31,11024
16:32:52.825,110756,-0.80,-0.68,-0.10,10.55,11025
16:32:52.827,110766,-0.80,-0.70,-0.06,10.66,11026
16:32:52.859,110776,-0.74,-0.71,0.00,10.24,11027
16:32:52.860,110786,-0.70,-0.69,-0.02,9.87,11028
16:32:52.874,110796,-0.69,-0.67,0.00,9.68,11029
16:32:52.894,110806,-0.71,-0.67,0.00,9.78,11030
16:32:52.894,110816,-0.73,-0.67,-0.01,9.88,11031
16:32:52.898,110826,-0.76,-0.67,0.02,10.15,11032
16:32:52.902,110836,-0.83,-0.66,0.02,10.65,11033
16:32:52.902,110846,-0.86,-0.66,0.03,10.91,11034
16:32:52.902,110856,-0.86,-0.68,0.01,10.90,11035
16:32:52.902,110866,-0.86,-0.69,-0.00,11.00,11036
16:32:52.902,110876,-0.93,-0.65,-0.02,11.37,11037
16:32:52.902,110886,-1.00,-0.57,-0.05,11.59,11038
16:32:52.903,110896,-1.04,-0.53,-0.07,11.65,11039
16:32:52.906,110906,-1.01,-0.54,-0.13,11.55,11040
16:32:52.906,110916,-1.03,-0.59,-0.18,11.97,11041
16:32:52.911,110926,-1.07,-0.58,-0.19,12.35,11042
16:32:52.921,110936,-1.12,-0.56,-0.18,12.67,11043
16:32:52.931,110946,-1.17,-0.54,-0.15,12.98,11044
16:32:52.941,110956,-1.22,-0.52,-0.10,13.31,11045
16:32:52.953,110966,-1.27,-0.55,-0.06,13.87,11046
16:32:52.973,110976,-1.39,-0.57,-0.09,15.06,11047
16:32:52.973,110986,-1.48,-0.54,-0.15,15.84,11048
16:32:52.985,110996,-1.43,-0.46,-0.19,15.11,11049
16:32:52.991,111006,-1.34,-0.49,-0.19,14.36,11050
16:32:53.011,111016,-1.15,-0.61,-0.06,13.00,11051
16:32:53.012,111026,-0.98,-0.78,0.15,12.61,11052
16:32:53.029,111036,-0.84,-0.92,0.29,12.83,11053
16:32:53.032,111046,-0.72,-1.02,0.38,13.07,11054
16:32:53.048,111056,-0.61,-1.06,0.47,13.12,11055
16:32:53.049,111066,-0.61,-1.05,0.58,13.44,11056
16:32:53.061,111076,-0.64,-0.95,0.68,13.34,11057
16:32:53.203,111086,-0.61,-0.86,0.79,13.18,11058
16:32:53.203,111096,-0.50,-0.85,0.96,13.74,11059
16:32:53.204,111106,-0.36,-0.83,1.16,14.68,11060
16:32:53.206,111116,-0.30,-0.66,1.05,12.75,11061
16:32:53.208,111126,-0.33,-0.41,0.80,9.57,11062
16:32:53.209,111136,-0.32,-0.38,0.66,8.26,11063
16:32:53.209,111146,-0.34,-0.53,0.65,9.04,11064
16:32:53.211,111156,-0.38,-0.72,0.60,10.11,11065
16:32:53.211,111166,-0.34,-0.87,0.58,11.05,11066
16:32:53.214,111176,-0.17,-0.83,0.64,10.59,11067
16:32:53.217,111186,-0.03,-0.79,0.61,9.96,11068
16:32:53.217,111196,0.04,-0.70,0.61,9.34,11069
16:32:53.217,111206,-0.07,-0.58,0.54,8.00,11070
16:32:53.217,111216,-0.19,-0.48,0.53,7.46,11071
16:32:53.217,111226,-0.27,-0.45,0.57,7.74,11072
16:32:53.221,111236,-0.31,-0.47,0.58,8.08,11073
16:32:53.232,111246,-0.27,-0.47,0.61,8.21,11074
16:32:53.241,111256,-0.25,-0.42,0.64,8.08,11075
16:32:53.249,111266,-0.30,-0.46,0.62,8.25,11076
16:32:53.260,111276,-0.38,-0.39,0.58,7.94,11077
16:32:53.276,111286,-0.48,-0.33,0.56,8.09,11078
16:32:53.281,111296,-0.59,-0.30,0.54,8.56,11079
16:32:53.293,111306,-0.68,-0.29,0.53,9.11,11080
16:32:53.300,111316,-0.66,-0.39,0.52,9.25,11081
16:32:53.310,111326,-0.60,-0.51,0.47,9.14,11082
16:32:53.327,111336,-0.54,-0.63,0.47,9.51,11083
16:32:53.331,111346,-0.51,-0.73,0.45,9.95,11084
16:32:53.342,111356,-0.47,-0.78,0.30,9.56,11085
16:32:53.353,111366,-0.48,-0.81,0.26,9.76,11086
16:32:53.363,111376,-0.57,-0.74,0.24,9.59,11087
16:32:53.370,111386,-0.64,-0.64,0.29,9.53,11088
16:32:53.404,111396,-0.72,-0.59,0.30,9.78,11089
16:32:53.405,111406,-0.80,-0.58,0.28,10.22,11090
16:32:53.406,111416,-0.82,-0.49,0.21,9.82,11091
16:32:53.437,111426,-0.81,-0.41,0.09,9.18,11092
16:32:53.438,111436,-0.83,-0.34,0.00,8.95,11093
16:32:53.439,111446,-0.81,-0.32,-0.11,8.76,11094
16:32:53.441,111456,-0.79,-0.32,-0.23,8.86,11095
16:32:53.478,111466,-0.78,-0.30,-0.34,9.05,11096
16:32:53.479,111476,-0.82,-0.24,-0.45,9.63,11097
16:32:53.481,111486,-0.86,-0.11,-0.48,9.91,11098
16:32:53.482,111496,-0.92,-0.07,-0.60,10.97,11099
16:32:53.520,111506,-0.88,-0.07,-0.57,10.54,11100
16:32:53.523,111516,-0.82,-0.11,-0.48,9.56,11101
16:32:53.523,111526,-0.74,-0.24,-0.40,8.73,11102
16:32:53.523,111536,-0.67,-0.34,-0.28,7.99,11103
16:32:53.562,111546,-0.64,-0.42,-0.19,7.86,11104
16:32:53.562,111556,-0.64,-0.43,-0.07,7.72,11105
16:32:53.564,111566,-0.64,-0.43,0.03,7.73,11106
16:32:53.566,111576,-0.88,-0.53,0.03,10.30,11107
16:32:53.603,111586,-1.04,-0.60,0.09,12.07,11108
16:32:53.603,111596,-1.17,-0.65,0.02,13.37,11109
16:32:53.604,111606,-1.38,-0.59,-0.09,15.04,11110
16:32:53.606,111616,-1.54,-0.37,-0.21,16.00,11111
16:32:53.617,111626,-1.64,-0.02,-0.34,16.76,11112
16:32:53.621,111636,-1.63,0.04,-0.35,16.68,11113
16:32:53.637,111646,-1.35,-0.41,-0.06,14.17,11114
16:32:53.641,111656,-0.97,-0.74,-0.15,12.29,11115
16:32:53.658,111666,-0.69,-0.75,-0.31,10.65,11116
16:32:53.660,111676,-0.62,-0.76,-0.09,9.85,11117
16:32:53.678,111686,-0.69,-0.70,0.18,9.98,11118
16:32:53.679,111696,-0.71,-0.66,0.30,10.11,11119
16:32:53.689,111706,-0.68,-0.65,0.21,9.64,11120
16:32:53.701,111716,-0.61,-0.73,0.24,9.80,11121
16:32:53.712,111726,-0.69,-0.75,0.27,10.54,11122
16:32:53.721,111736,-0.87,-0.69,0.27,11.46,11123
16:32:53.730,111746,-0.93,-0.57,0.25,11.19,11124
16:32:53.747,111756,-0.93,-0.56,0.10,10.95,11125
16:32:53.750,111766,-0.83,-0.66,0.04,10.59,11126
16:32:53.780,111776,-0.76,-0.75,0.00,10.72,11127
16:32:53.782,111786,-0.72,-0.81,-0.05,10.88,11128
16:32:53.783,111796,-0.70,-0.83,-0.06,10.93,11129
16:32:53.793,111806,-0.69,-0.85,-0.04,10.99,11130
16:32:53.804,111816,-0.72,-0.80,-0.02,10.77,11131
16:32:53.811,111826,-0.76,-0.74,0.02,10.66,11132
16:32:53.822,111836,-0.78,-0.69,0.00,10.42,11133
16:32:53.831,111846,-0.79,-0.65,0.02,10.22,11134
16:32:53.847,111856,-0.82,-0.63,0.02,10.37,11135
16:32:53.851,111866,-0.86,-0.64,0.04,10.77,11136
16:32:53.859,111876,-0.87,-0.66,0.04,10.93,11137
16:32:53.870,111886,-0.87,-0.67,0.08,10.99,11138
16:32:53.881,111896,-0.83,-0.67,0.10,10.72,11139
16:32:53.899,111906,-0.80,-0.67,0.11,10.45,11140
16:32:53.899,111916,-0.77,-0.69,0.09,10.37,11141
16:32:53.913,111926,-0.74,-0.71,0.10,10.29,11142
16:32:53.924,111936,-0.73,-0.75,0.10,10.50,11143
16:32:53.930,111946,-0.73,-0.75,0.06,10.48,11144
16:32:53.945,111956,-0.75,-0.72,0.05,10.39,11145
16:32:53.953,111966,-0.79,-0.68,0.06,10.47,11146
16:32:53.963,111976,-0.85,-0.62,0.08,10.56,11147
16:32:53.972,111986,-0.89,-0.57,0.08,10.54,11148
16:32:53.982,111996,-0.88,-0.53,0.07,10.31,11149
16:32:53.999,112006,-0.84,-0.55,0.02,10.06,11150
16:32:53.999,112016,-0.83,-0.61,-0.00,10.28,11151
16:32:54.013,112026,-0.83,-0.64,-0.03,10.49,11152
16:32:54.020,112036,-0.81,-0.67,-0.05,10.51,11153
16:32:54.030,112046,-0.78,-0.71,-0.04,10.54,11154
16:32:54.044,112056,-0.77,-0.68,-0.03,10.31,11155
16:32:54.050,112066,-0.79,-0.66,-0.03,10.25,11156
16:32:54.065,112076,-0.81,-0.62,-0.03,10.23,11157
16:32:54.070,112086,-0.82,-0.61,-0.02,10.18,11158
16:32:54.080,112096,-0.82,-0.62,-0.04,10.25,11159
16:32:54.094,112106,-0.82,-0.63,-0.05,10.30,11160
16:32:54.104,112116,-0.84,-0.62,-0.09,10.49,11161
16:32:54.110,112126,-0.87,-0.59,-0.11,10.56,11162
16:32:54.123,112136,-0.87,-0.60,-0.11,10.58,11163
16:32:54.166,112146,-0.84,-0.59,-0.08,10.31,11164
16:32:54.169,112156,-0.82,-0.58,-0.08,10.05,11165
16:32:54.203,112166,-0.80,-0.57,-0.08,9.87,11166
16:32:54.320,112176,-0.81,-0.60,-0.07,10.10,11167
16:32:54.320,112186,-0.82,-0.63,-0.04,10.37,11168
16:32:54.324,112196,-0.80,-0.66,-0.00,10.38,11169
16:32:54.325,112206,-0.75,-0.71,0.02,10.30,11170
16:32:54.325,112216,-0.70,-0.73,0.07,10.16,11171
16:32:54.325,112226,-0.68,-0.75,0.12,10.23,11172
16:32:54.352,112236,-0.71,-0.73,0.11,10.19,11173
16:32:54.355,112246,-0.72,-0.68,0.10,9.94,11174
16:32:54.355,112256,-0.75,-0.66,0.09,10.03,11175
16:32:54.355,112266,-0.73,-0.66,0.09,9.90,11176
16:32:54.355,112276,-0.77,-0.69,0.07,10.30,11177
16:32:54.355,112286,-0.79,-0.69,0.02,10.44,11178
16:32:54.355,112296,-0.81,-0.65,0.00,10.37,11179
16:32:54.355,112306,-0.84,-0.65,0.02,10.61,11180
16:32:54.355,112316,-0.87,-0.67,0.03,10.95,11181
16:32:54.355,112326,-0.93,-0.65,0.01,11.34,11182
16:32:54.355,112336,-0.99,-0.60,0.00,11.54,11183
16:32:54.359,112346,-1.02,-0.54,-0.02,11.50,11184
16:32:54.367,112356,-0.98,-0.60,-0.08,11.49,11185
16:32:54.374,112366,-0.96,-0.61,-0.14,11.48,11186
16:32:54.409,112376,-0.98,-0.60,-0.16,11.63,11187
16:32:54.418,112386,-1.04,-0.58,-0.15,12.02,11188
16:32:54.425,112396,-1.12,-0.52,-0.13,12.39,11189
16:32:54.428,112406,-1.17,-0.52,-0.08,12.85,11190
16:32:54.430,112416,-1.29,-0.54,-0.04,13.96,11191
16:32:54.433,112426,-1.42,-0.51,-0.10,15.16,11192
16:32:54.434,112436,-1.50,-0.43,-0.09,15.61,11193
16:32:54.436,112446,-1.53,-0.38,-0.17,15.86,11194
16:32:54.451,112456,-1.36,-0.48,-0.11,14.47,11195
16:32:54.504,112466,-1.18,-0.68,0.03,13.56,11196
16:32:54.505,112476,-1.02,-0.84,0.16,13.30,11197
16:32:54.505,112486,-0.82,-1.02,0.29,13.40,11198
16:32:54.517,112496,-0.65,-1.11,0.43,13.55,11199
16:32:54.518,112506,-0.56,-1.16,0.52,13.87,11200
16:32:54.519,112516,-0.52,-1.15,0.62,14.00,11201
16:32:54.527,112526,-0.52,-1.05,0.64,13.42,11202
16:32:54.527,112536,-0.50,-0.94,0.78,13.22,11203
16:32:54.531,112546,-0.40,-0.86,0.93,13.24,11204
16:32:54.544,112556,-0.31,-0.81,1.14,14.34,11205
16:32:54.550,112566,-0.30,-0.62,1.10,12.97,11206
16:32:54.562,112576,-0.36,-0.41,0.91,10.63,11207
16:32:54.582,112586,-0.39,-0.33,0.76,9.17,11208
16:32:54.585,112596,-0.41,-0.48,0.69,9.39,11209
16:32:54.592,112606,-0.45,-0.67,0.60,10.04,11210
16:32:54.610,112616,-0.43,-0.85,0.52,10.84,11211
16:32:54.611,112626,-0.28,-0.83,0.53,10.26,11212
16:32:54.624,112636,-0.15,-0.72,0.48,8.84,11213
16:32:54.631,112646,-0.07,-0.66,0.48,8.22,11214
16:32:54.640,112656,-0.09,-0.60,0.54,8.09,11215
16:32:54.649,112666,-0.18,-0.51,0.59,8.00,11216
16:32:54.667,112676,-0.28,-0.44,0.58,7.75,11217
16:32:54.672,112686,-0.35,-0.41,0.58,7.90,11218
16:32:54.682,112696,-0.36,-0.44,0.60,8.25,11219
16:32:54.690,112706,-0.30,-0.39,0.61,7.83,11220
16:32:54.710,112716,-0.29,-0.41,0.57,7.63,11221
16:32:54.712,112726,-0.34,-0.45,0.57,8.02,11222
16:32:54.724,112736,-0.41,-0.41,0.53,7.86,11223
16:32:54.733,112746,-0.49,-0.39,0.50,7.97,11224
16:32:54.740,112756,-0.59,-0.39,0.46,8.48,11225
16:32:54.752,112766,-0.64,-0.38,0.43,8.58,11226
16:32:54.764,112776,-0.65,-0.38,0.45,8.73,11227
16:32:54.771,112786,-0.65,-0.40,0.47,8.92,11228
16:32:54.814,112796,-0.60,-0.50,0.47,9.14,11229
16:32:54.816,112806,-0.54,-0.61,0.41,9.18,11230
16:32:54.818,112816,-0.50,-0.67,0.34,9.02,11231
16:32:54.819,112826,-0.52,-0.72,0.25,9.24,11232
16:32:54.855,112836,-0.53,-0.77,0.26,9.69,11233
16:32:54.855,112846,-0.56,-0.74,0.25,9.61,11234
16:32:54.858,112856,-0.60,-0.67,0.25,9.32,11235
16:32:54.860,112866,-0.72,-0.65,0.24,10.01,11236
16:32:54.861,112876,-0.84,-0.61,0.17,10.51,11237
16:32:54.902,112886,-0.82,-0.53,0.14,9.85,11238
16:32:54.902,112896,-0.79,-0.47,0.03,9.21,11239
16:32:54.902,112906,-0.77,-0.35,-0.11,8.52,11240
16:32:54.903,112916,-0.79,-0.25,-0.21,8.50,11241
16:32:54.930,112926,-0.82,-0.20,-0.24,8.81,11242
16:32:54.931,112936,-0.91,-0.19,-0.26,9.60,11243
16:32:54.934,112946,-1.03,-0.13,-0.35,10.98,11244
16:32:54.964,112956,-1.04,-0.07,-0.45,11.35,11245
16:32:54.965,112966,-0.96,-0.04,-0.49,10.78,11246
16:32:54.966,112976,-0.82,-0.12,-0.56,10.04,11247
16:32:55.006,112986,-0.71,-0.28,-0.51,9.16,11248
16:32:55.006,112996,-0.64,-0.38,-0.42,8.52,11249
16:32:55.007,113006,-0.58,-0.45,-0.32,8.03,11250
16:32:55.008,113016,-0.63,-0.52,-0.24,8.45,11251
16:32:55.011,113026,-0.71,-0.59,-0.17,9.39,11252
16:32:55.028,113036,-0.65,-0.62,-0.12,9.02,11253
16:32:55.033,113046,-0.73,-0.59,-0.17,9.54,11254
16:32:55.064,113056,-1.17,-0.58,-0.20,13.22,11255
16:32:55.065,113066,-1.64,-0.46,-0.06,17.03,11256
16:32:55.066,113076,-1.99,-0.34,-0.11,20.23,11257
16:32:55.070,113086,-1.72,-0.04,-0.09,17.22,11258
16:32:55.080,113096,-1.34,0.14,-0.26,13.70,11259
16:32:55.089,113106,-1.06,-0.38,-0.35,11.83,11260
16:32:55.106,113116,-0.90,-0.65,-0.20,11.25,11261
16:32:55.111,113126,-0.73,-0.79,-0.00,10.80,11262
16:32:55.121,113136,-0.59,-0.84,0.23,10.51,11263
16:32:55.130,113146,-0.46,-0.88,0.44,10.85,11264
16:32:55.140,113156,-0.45,-0.88,0.42,10.73,11265
16:32:55.158,113166,-0.53,-0.79,0.42,10.44,11266
16:32:55.162,113176,-0.66,-0.65,0.48,10.40,11267
16:32:55.170,113186,-0.80,-0.57,0.41,10.66,11268
16:32:55.183,113196,-1.05,-0.55,0.37,12.39,11269
16:32:55.192,113206,-1.08,-0.56,0.21,12.32,11270
16:32:55.203,113216,-0.90,-0.70,0.10,11.44,11271
16:32:55.219,113226,-0.68,-0.83,-0.00,10.77,11272
16:32:55.224,113236,-0.54,-0.93,-0.01,10.81,11273
16:32:55.235,113246,-0.52,-0.98,-0.00,11.09,11274
16:32:55.241,113256,-0.61,-0.91,0.05,10.98,11275
16:32:55.249,113266,-0.70,-0.80,0.09,10.71,11276
16:32:55.265,113276,-0.78,-0.69,0.11,10.48,11277
16:32:55.273,113286,-0.84,-0.63,0.11,10.53,11278
16:32:55.281,113296,-0.88,-0.60,0.14,10.75,11279
16:32:55.293,113306,-0.89,-0.61,0.15,10.93,11280
16:32:55.302,113316,-0.87,-0.64,0.13,10.84,11281
16:32:55.311,113326,-0.83,-0.68,0.10,10.74,11282
16:32:55.325,113336,-0.82,-0.70,0.08,10.77,11283
16:32:55.335,113346,-0.79,-0.70,0.06,10.53,11284
16:32:55.343,113356,-0.77,-0.70,0.03,10.36,11285
16:32:55.356,113366,-0.75,-0.70,0.02,10.26,11286
16:32:55.362,113376,-0.77,-0.70,0.04,10.37,11287
16:32:55.371,113386,-0.77,-0.70,0.06,10.40,11288
16:32:55.381,113396,-0.79,-0.69,0.05,10.49,11289
16:32:55.393,113406,-0.79,-0.68,0.07,10.47,11290
16:32:55.403,113416,-0.79,-0.65,0.06,10.23,11291
16:32:55.414,113426,-0.81,-0.63,0.06,10.27,11292
16:32:55.423,113436,-0.84,-0.58,0.03,10.23,11293
16:32:55.432,113446,-0.85,-0.57,0.01,10.24,11294
16:32:55.442,113456,-0.84,-0.59,-0.00,10.27,11295
16:32:55.458,113466,-0.82,-0.61,-0.03,10.24,11296
16:32:55.459,113476,-0.80,-0.65,-0.04,10.27,11297
16:32:55.469,113486,-0.79,-0.66,-0.06,10.28,11298
16:32:55.486,113496,-0.79,-0.66,-0.07,10.28,11299
16:32:55.491,113506,-0.81,-0.65,-0.05,10.39,11300
16:32:55.502,113516,-0.82,-0.62,-0.03,10.29,11301
16:32:55.512,113526,-0.83,-0.63,-0.01,10.39,11302
16:32:55.522,113536,-0.83,-0.60,0.01,10.22,11303
16:32:55.532,113546,-0.82,-0.59,0.01,10.11,11304
16:32:55.542,113556,-0.83,-0.59,0.00,10.18,11305
16:32:55.552,113566,-0.85,-0.58,-0.01,10.30,11306
16:32:55.566,113576,-0.85,-0.59,-0.05,10.33,11307
16:32:55.673,113586,-0.82,-0.63,-0.07,10.36,11308
