time,timestamps,ax,ay,az,mag
18:34:35.332,28659,-0.99,-0.32,0.04,1.04
18:34:35.336,28653,-0.99,-0.33,0.03,1.05
18:34:35.339,28665,-0.99,-0.32,0.03,1.04
18:34:35.344,28671,-0.99,-0.31,0.03,1.04
18:34:35.350,28677,-0.99,-0.31,0.04,1.04
18:34:35.357,28683,-1.00,-0.32,0.04,1.05
18:34:35.365,28689,-0.99,-0.32,0.05,1.04
18:34:35.368,28695,-0.99,-0.32,0.05,1.04
18:34:35.378,28701,-0.99,-0.32,0.04,1.05
18:34:35.381,28707,-0.99,-0.33,0.05,1.05
18:34:35.387,28713,-1.00,-0.33,0.06,1.05
18:34:35.392,28719,-0.99,-0.33,0.06,1.05
18:34:35.399,28725,-0.99,-0.32,0.06,1.05
18:34:35.408,28731,-1.00,-0.33,0.07,1.05
18:34:35.411,28737,-0.99,-0.33,0.06,1.04
18:34:35.420,28743,-0.99,-0.33,0.06,1.04
18:34:35.431,28749,-0.99,-0.33,0.06,1.05
18:34:35.432,28755,-1.00,-0.32,0.06,1.05
18:34:35.437,28761,-1.00,-0.32,0.06,1.05
18:34:35.441,28767,-0.99,-0.32,0.05,1.04
18:34:35.445,28773,-0.99,-0.32,0.05,1.04
18:34:35.452,28779,-0.99,-0.31,0.05,1.04
18:34:35.458,28785,-0.98,-0.32,0.05,1.04
18:34:35.466,28791,-0.99,-0.32,0.05,1.04
18:34:35.470,28797,-1.00,-0.33,0.05,1.05
18:34:35.476,28803,-1.00,-0.33,0.06,1.05
18:34:35.485,28809,-0.99,-0.32,0.06,1.05
18:34:35.487,28815,-1.00,-0.32,0.06,1.05
18:34:35.499,28821,-0.99,-0.32,0.07,1.04
18:34:35.500,28827,-0.99,-0.31,0.05,1.04
18:34:35.510,28833,-0.99,-0.32,0.05,1.04
18:34:35.512,28839,-0.99,-0.31,0.06,1.04
18:34:35.518,28845,-0.99,-0.31,0.05,1.04
18:34:35.524,28851,-0.99,-0.33,0.06,1.05
18:34:35.532,28857,-0.99,-0.32,0.05,1.04
18:34:35.536,28863,-0.99,-0.31,0.05,1.04
18:34:35.571,28869,-0.99,-0.32,0.05,1.04
18:34:35.573,28875,-0.98,-0.31,0.05,1.03
18:34:35.574,28881,-0.98,-0.30,0.05,1.03
18:34:35.575,28887,-0.98,-0.31,0.04,1.03
18:34:35.578,28893,-0.98,-0.30,0.05,1.03
18:34:35.578,28899,-0.98,-0.31,0.05,1.03
18:34:35.664,28905,-0.99,-0.31,0.05,1.04
18:34:35.665,28911,-0.98,-0.30,0.04,1.03
18:34:35.666,28917,-0.99,-0.30,0.05,1.04
18:34:35.667,28923,-0.99,-0.30,0.04,1.04
18:34:35.705,28929,-1.00,-0.30,0.05,1.04
18:34:35.705,28935,-1.00,-0.30,0.04,1.04
18:34:35.707,28941,-0.99,-0.29,0.04,1.04
18:34:35.709,28947,-1.00,-0.28,0.03,1.04
18:34:35.712,28953,-1.00,-0.28,0.03,1.04
18:34:35.712,28959,-1.00,-0.26,0.02,1.04
18:34:35.712,28965,-1.01,-0.26,0.01,1.04
18:34:35.712,28971,-1.01,-0.26,-0.01,1.04
18:34:35.712,28977,-1.02,-0.26,-0.06,1.05
18:34:35.712,28983,-1.01,-0.25,-0.11,1.04
18:34:35.712,28989,-1.00,-0.24,-0.12,1.03
18:34:35.712,28995,-1.00,-0.22,-0.16,1.03
18:34:35.712,29001,-1.01,-0.21,-0.20,1.05
18:34:35.712,29007,-1.02,-0.19,-0.23,1.07
18:34:35.712,29013,-1.05,-0.16,-0.24,1.09
18:34:35.712,29019,-1.06,-0.17,-0.27,1.11
18:34:35.712,29025,-1.06,-0.20,-0.27,1.11
18:34:35.712,29031,-1.08,-0.10,-0.33,1.14
18:34:35.712,29037,-1.07,-0.15,-0.32,1.13
18:34:35.750,29043,-1.08,-0.12,-0.34,1.14
18:34:35.750,29049,-1.08,-0.12,-0.34,1.14
18:34:35.751,29055,-1.08,-0.09,-0.34,1.13
18:34:35.752,29061,-1.08,-0.08,-0.33,1.13
18:34:35.755,29067,-1.08,-0.06,-0.31,1.12
18:34:35.755,29073,-1.07,-0.07,-0.30,1.12
18:34:35.755,29079,-1.07,-0.07,-0.27,1.11
18:34:35.792,29085,-1.08,-0.07,-0.23,1.11
18:34:35.793,29091,-1.08,-0.09,-0.21,1.11
18:34:35.795,29097,-1.10,-0.13,-0.17,1.12
18:34:35.795,29103,-1.11,-0.19,-0.13,1.13
18:34:35.797,29109,-1.14,-0.25,-0.10,1.17
18:34:35.797,29115,-1.16,-0.32,-0.08,1.21
18:34:35.797,29121,-1.21,-0.38,-0.02,1.27
18:34:35.798,29127,-1.23,-0.42,0.02,1.30
18:34:35.808,29133,-1.25,-0.45,0.05,1.33
18:34:35.811,29139,-1.26,-0.47,0.08,1.35
18:34:35.822,29145,-1.30,-0.47,0.15,1.39
18:34:35.822,29151,-1.29,-0.45,0.20,1.38
18:34:35.831,29157,-1.25,-0.43,0.20,1.34
18:34:35.838,29163,-1.23,-0.43,0.22,1.32
18:34:35.844,29169,-1.21,-0.43,0.26,1.31
18:34:35.849,29175,-1.18,-0.42,0.29,1.29
18:34:35.855,29181,-1.17,-0.44,0.28,1.28
18:34:35.863,29187,-1.16,-0.49,0.27,1.29
18:34:35.866,29193,-1.16,-0.54,0.21,1.30
18:34:35.872,29199,-1.13,-0.59,0.17,1.28
18:34:35.880,29205,-1.10,-0.67,0.13,1.30
18:34:35.884,29211,-1.08,-0.68,-0.01,1.28
18:34:35.889,29217,-1.06,-0.57,0.14,1.22
18:34:35.898,29223,-0.99,-0.59,0.19,1.17
18:34:35.902,29229,-0.95,-0.59,0.48,1.22
18:34:35.911,29235,-0.97,-0.51,0.11,1.10
18:34:35.914,29241,-0.99,-0.41,0.31,1.11
18:34:35.921,29247,-0.89,-0.39,0.22,1.00
18:34:35.926,29253,-0.92,-0.34,0.26,1.01
18:34:35.935,29259,-0.93,-0.29,0.27,1.01
18:34:35.938,29265,-0.92,-0.28,0.21,0.99
18:34:35.946,29271,-0.93,-0.28,0.19,0.99
18:34:35.955,29277,-0.93,-0.27,0.18,0.99
18:34:35.955,29283,-0.92,-0.26,0.21,0.98
18:34:35.987,29289,-0.91,-0.25,0.22,0.97
18:34:35.989,29295,-0.89,-0.25,0.22,0.95
18:34:36.000,29301,-0.88,-0.25,0.22,0.94
18:34:36.001,29307,-0.86,-0.26,0.22,0.92
18:34:36.003,29313,-0.86,-0.29,0.20,0.93
18:34:36.025,29319,-0.87,-0.32,0.17,0.95
18:34:36.025,29325,-0.90,-0.36,0.16,0.98
18:34:36.055,29331,-0.92,-0.39,0.14,1.01
18:34:36.058,29337,-0.94,-0.41,0.14,1.04
18:34:36.058,29343,-0.96,-0.43,0.15,1.06
18:34:36.058,29349,-0.97,-0.44,0.15,1.07
18:34:36.058,29355,-0.97,-0.43,0.14,1.07
18:34:36.059,29361,-0.97,-0.41,0.15,1.06
18:34:36.062,29367,-0.96,-0.40,0.14,1.05
18:34:36.062,29373,-0.96,-0.38,0.14,1.04
18:34:36.062,29379,-0.95,-0.35,0.13,1.02
18:34:36.066,29385,-0.94,-0.33,0.14,1.01
18:34:36.067,29391,-0.95,-0.31,0.12,1.00
18:34:36.073,29397,-0.95,-0.29,0.12,1.00
18:34:36.075,29403,-0.95,-0.28,0.10,1.00
18:34:36.088,29409,-0.94,-0.28,0.12,0.99
18:34:36.088,29415,-0.92,-0.27,0.12,0.97
18:34:36.094,29421,-0.92,-0.28,0.09,0.96
18:34:36.102,29427,-0.93,-0.26,0.09,0.97
18:34:36.107,29433,-0.92,-0.25,0.08,0.96
18:34:36.116,29439,-0.93,-0.26,0.07,0.97
18:34:36.119,29445,-0.95,-0.25,0.02,0.99
18:34:36.127,29451,-0.99,-0.26,0.03,1.02
18:34:36.131,29457,-1.04,-0.27,-0.01,1.07
18:34:36.136,29463,-1.03,-0.27,-0.04,1.06
18:34:36.146,29469,-1.02,-0.25,-0.07,1.05
18:34:36.148,29475,-1.04,-0.27,-0.10,1.08
18:34:36.156,29481,-1.06,-0.27,-0.11,1.10
18:34:36.159,29487,-1.04,-0.27,-0.12,1.08
18:34:36.167,29493,-0.99,-0.24,-0.14,1.03
18:34:36.171,29499,-0.99,-0.20,-0.15,1.02
18:34:36.184,29505,-0.97,-0.12,-0.14,0.99
18:34:36.185,29511,-0.96,-0.07,-0.17,0.98
18:34:36.189,29517,-0.93,-0.02,-0.18,0.95
18:34:36.200,29523,-0.86,-0.05,-0.18,0.88
18:34:36.201,29529,-0.85,0.05,-0.27,0.90
18:34:36.208,29535,-0.86,-0.04,-0.28,0.90
18:34:36.214,29541,-0.87,-0.09,-0.34,0.94
18:34:36.224,29547,-0.90,-0.11,-0.35,0.97
18:34:36.225,29553,-0.93,-0.18,-0.28,0.99
18:34:36.231,29559,-0.93,-0.17,-0.39,1.02
18:34:36.242,29565,-0.89,-0.25,-0.36,0.99
18:34:36.243,29571,-0.91,-0.28,-0.36,1.02
18:34:36.250,29577,-0.86,-0.32,-0.39,1.00
18:34:36.256,29583,-0.85,-0.32,-0.35,0.98
18:34:36.264,29589,-0.84,-0.33,-0.33,0.96
18:34:36.268,29595,-0.84,-0.32,-0.27,0.94
18:34:36.277,29601,-0.85,-0.32,-0.21,0.93
18:34:36.280,29607,-0.86,-0.33,-0.15,0.93
18:34:36.289,29613,-0.84,-0.34,-0.11,0.92
18:34:36.292,29619,-0.84,-0.36,-0.07,0.92
18:34:36.299,29625,-0.85,-0.35,-0.02,0.92
18:34:36.304,29631,-0.85,-0.35,-0.00,0.92
18:34:36.310,29637,-0.84,-0.36,-0.01,0.92
18:34:36.316,29643,-0.83,-0.39,0.00,0.92
18:34:36.323,29649,-0.81,-0.41,0.02,0.90
18:34:36.328,29655,-0.79,-0.41,0.01,0.89
18:34:36.334,29661,-0.79,-0.40,0.04,0.88
18:34:36.339,29667,-0.80,-0.38,0.05,0.89
18:34:36.427,29673,-0.84,-0.33,0.05,0.91
18:34:36.431,29679,-1.05,-0.28,0.00,1.09
18:34:36.432,29685,-1.57,-0.06,-0.16,1.57
18:34:36.433,29691,-2.13,0.13,-0.07,2.13
18:34:36.468,29697,-2.13,0.28,0.29,2.16
18:34:36.469,29703,-2.13,0.16,0.43,2.17
18:34:36.472,29709,-1.82,0.12,-0.02,1.82
18:34:36.475,29715,-1.14,0.13,-0.14,1.15
18:34:36.475,29721,-0.97,0.21,0.03,0.99
18:34:36.475,29727,-0.45,0.38,-0.22,0.63
18:34:36.475,29733,-0.65,0.15,-0.16,0.69
18:34:36.475,29739,-0.85,0.31,-0.26,0.94
18:34:36.475,29745,-1.18,0.17,-0.22,1.22
18:34:36.475,29751,-1.54,0.08,-0.00,1.54
18:34:36.475,29757,-1.49,-0.34,-0.15,1.53
18:34:36.475,29763,-1.49,-0.75,0.22,1.68
18:34:36.475,29769,-1.16,-0.57,0.36,1.34
18:34:36.475,29775,-0.79,-0.79,-0.14,1.12
18:34:36.475,29781,-0.97,-0.55,-0.35,1.17
18:34:36.476,29787,-0.91,-1.31,-0.07,1.60
18:34:36.476,29793,-0.41,-0.83,-0.28,0.97
18:34:36.476,29799,-0.97,-0.52,-0.05,1.10
18:34:36.513,29805,-1.12,-0.02,0.01,1.12
18:34:36.563,29811,-1.14,0.03,0.23,1.16
18:34:36.564,29817,-1.03,-0.13,0.21,1.06
18:34:36.576,29823,-1.02,-0.22,-0.15,1.05
18:34:36.579,29829,-1.08,-0.26,-0.17,1.12
18:34:36.579,29835,-1.03,-0.42,-0.11,1.12
18:34:36.579,29841,-1.05,-0.49,-0.24,1.18
18:34:36.601,29847,-1.03,-0.48,-0.24,1.16
18:34:36.602,29853,-0.97,-0.45,-0.23,1.09
18:34:36.603,29859,-0.97,-0.39,-0.16,1.06
18:34:36.604,29865,-1.00,-0.36,-0.13,1.07
18:34:36.606,29871,-1.03,-0.37,-0.14,1.10
18:34:36.608,29877,-1.06,-0.39,-0.16,1.14
18:34:36.608,29883,-1.06,-0.41,-0.18,1.15
18:34:36.608,29889,-1.03,-0.42,-0.22,1.13
18:34:36.608,29895,-0.99,-0.44,-0.27,1.12
18:34:36.608,29901,-0.97,-0.47,-0.29,1.11
18:34:36.608,29907,-0.98,-0.49,-0.33,1.14
18:34:36.608,29913,-1.01,-0.47,-0.31,1.16
18:34:36.608,29919,-1.02,-0.46,-0.31,1.17
18:34:36.608,29925,-1.03,-0.44,-0.33,1.16
18:34:36.608,29931,-1.02,-0.43,-0.31,1.15
18:34:36.610,29937,-1.01,-0.39,-0.30,1.12
18:34:36.617,29943,-1.01,-0.37,-0.27,1.10
18:34:36.623,29949,-1.01,-0.33,-0.24,1.09
18:34:36.628,29955,-1.02,-0.30,-0.20,1.08
18:34:36.634,29961,-1.03,-0.29,-0.15,1.08
18:34:36.640,29967,-1.03,-0.28,-0.12,1.07
18:34:36.645,29973,-1.02,-0.27,-0.11,1.06
18:34:36.651,29979,-1.00,-0.30,-0.10,1.05
18:34:36.658,29985,-1.00,-0.32,-0.10,1.05
18:34:36.667,29991,-1.00,-0.34,-0.10,1.06
18:34:36.671,29997,-0.99,-0.34,-0.10,1.05
18:34:36.676,30003,-0.99,-0.36,-0.07,1.06
18:34:36.682,30009,-1.00,-0.36,-0.08,1.07
18:34:36.690,30015,-1.00,-0.37,-0.06,1.07
18:34:36.694,30021,-0.99,-0.36,-0.04,1.05
18:34:36.699,30027,-0.99,-0.33,-0.04,1.05
18:34:36.706,30033,-0.98,-0.32,-0.02,1.03
18:34:36.712,30039,-0.98,-0.33,-0.02,1.03
18:34:36.718,30045,-0.96,-0.34,-0.01,1.02
18:34:36.724,30051,-0.97,-0.33,-0.01,1.02
18:34:36.730,30057,-0.95,-0.32,-0.00,1.01
18:34:36.740,30063,-0.97,-0.29,0.03,1.01
18:34:36.742,30069,-0.96,-0.30,0.04,1.01
18:34:36.752,30075,-0.96,-0.34,0.06,1.02
18:34:36.754,30081,-0.95,-0.41,0.06,1.03
18:34:36.763,30087,-0.95,-0.43,0.09,1.05
18:34:36.765,30093,-0.97,-0.42,0.13,1.07
18:34:36.775,30099,-0.97,-0.40,0.14,1.06
18:34:36.778,30105,-0.97,-0.40,0.17,1.06
18:34:36.785,30111,-0.97,-0.42,0.15,1.07
18:34:36.790,30117,-0.97,-0.44,0.13,1.07
18:34:36.799,30123,-0.98,-0.43,0.10,1.07
18:34:36.803,30129,-0.98,-0.42,0.11,1.08
18:34:36.811,30135,-1.00,-0.45,0.07,1.10
18:34:36.814,30141,-1.00,-0.43,0.08,1.09
18:34:36.819,30147,-0.98,-0.43,0.02,1.07
18:34:36.827,30153,-0.99,-0.40,-0.01,1.07
18:34:36.832,30159,-0.98,-0.40,0.01,1.05
18:34:36.841,30165,-0.99,-0.39,-0.02,1.06
18:34:36.844,30171,-0.99,-0.41,-0.02,1.07
18:34:36.849,30177,-0.98,-0.43,-0.04,1.07
18:34:36.856,30183,-0.96,-0.42,-0.03,1.05
18:34:36.862,30189,-0.98,-0.40,0.02,1.06
18:34:36.871,30195,-1.00,-0.38,0.04,1.07
18:34:36.875,30201,-1.04,-0.36,0.07,1.10
18:34:36.880,30207,-1.07,-0.37,0.07,1.13
18:34:36.913,30213,-1.10,-0.37,0.06,1.16
18:34:36.915,30219,-1.10,-0.38,0.05,1.17
18:34:36.915,30225,-1.07,-0.38,0.01,1.14
18:34:36.917,30231,-1.06,-0.38,0.01,1.12
18:34:36.919,30237,-1.04,-0.38,-0.00,1.11
18:34:36.920,30243,-1.04,-0.40,-0.01,1.11
18:34:36.923,30249,-1.03,-0.42,-0.01,1.11
18:34:36.928,30255,-1.04,-0.43,0.01,1.12
18:34:36.942,30261,-1.05,-0.43,-0.00,1.13
18:34:36.943,30267,-1.04,-0.42,-0.01,1.12
18:34:36.950,30273,-1.04,-0.41,-0.04,1.12
18:34:36.955,30279,-1.03,-0.41,-0.05,1.11
18:34:36.958,30285,-1.03,-0.42,-0.05,1.11
18:34:36.966,30291,-1.01,-0.41,-0.06,1.09
18:34:36.971,30297,-1.00,-0.41,-0.05,1.09
18:34:36.976,30303,-0.99,-0.42,-0.06,1.07
18:34:36.987,30309,-0.98,-0.44,-0.06,1.07
18:34:36.990,30315,-0.97,-0.46,-0.06,1.07
18:34:36.995,30321,-0.97,-0.46,-0.05,1.07
18:34:36.999,30327,-0.98,-0.44,-0.03,1.07
18:34:37.008,30333,-1.01,-0.42,0.00,1.09
18:34:37.015,30339,-1.03,-0.40,0.03,1.10
18:34:37.018,30345,-1.02,-0.40,0.02,1.10
18:34:37.025,30351,-1.03,-0.39,0.04,1.10
18:34:37.030,30357,-1.06,-0.37,0.03,1.12
18:34:37.040,30363,-1.10,-0.38,0.06,1.17
18:34:37.044,30369,-1.15,-0.49,-0.04,1.25
18:34:37.051,30375,-1.19,-0.43,0.01,1.27
18:34:37.054,30381,-1.25,-0.23,0.11,1.27
18:34:37.092,30387,-1.21,-0.12,0.15,1.23
18:34:37.094,30393,-1.22,-0.01,0.02,1.22
18:34:37.094,30399,-1.19,-0.04,-0.04,1.20
18:34:37.096,30405,-1.21,-0.02,-0.05,1.21
18:34:37.101,30411,-1.18,0.05,-0.20,1.20
18:34:37.101,30417,-1.18,0.11,-0.14,1.19
18:34:37.135,30423,-1.26,0.17,-0.25,1.29
18:34:37.138,30429,-1.33,0.08,-0.19,1.34
18:34:37.143,30435,-1.47,0.07,-0.20,1.48
18:34:37.143,30441,-1.56,0.07,-0.24,1.58
18:34:37.143,30447,-1.58,0.10,-0.24,1.61
18:34:37.143,30453,-1.66,0.16,-0.29,1.69
18:34:37.143,30459,-1.61,0.12,-0.30,1.64
18:34:37.143,30465,-1.46,-0.08,-0.28,1.49
18:34:37.177,30471,-1.34,-0.27,-0.39,1.42
18:34:37.177,30477,-1.24,-0.31,-0.44,1.35
18:34:37.178,30483,-1.18,-0.38,-0.28,1.27
18:34:37.179,30489,-1.01,-0.81,-0.23,1.31
18:34:37.187,30495,-1.00,-0.68,0.30,1.24
18:34:37.187,30501,-0.89,-0.84,0.55,1.34
18:34:37.187,30507,-0.74,-0.86,0.66,1.31
18:34:37.219,30513,-0.63,-0.98,0.41,1.23
18:34:37.222,30519,-1.20,-1.02,1.53,2.20
18:34:37.222,30525,-1.00,-1.37,0.60,1.80
18:34:37.227,30531,-1.09,-1.50,0.53,1.93
18:34:37.227,30537,-1.02,-1.49,0.41,1.85
18:34:37.227,30543,-0.91,-1.39,0.43,1.71
18:34:37.227,30549,-0.72,-1.18,0.44,1.45
18:34:37.260,30555,-0.64,-0.90,0.59,1.25
18:34:37.260,30561,-0.63,-0.68,0.58,1.10
18:34:37.260,30567,-0.70,-0.51,0.64,1.08
18:34:37.264,30573,-0.73,-0.42,0.65,1.07
18:34:37.264,30579,-0.76,-0.34,0.74,1.11
18:34:37.266,30585,-0.77,-0.33,0.77,1.14
18:34:37.286,30591,-0.76,-0.40,0.74,1.13
18:34:37.286,30597,-0.73,-0.50,0.64,1.09
18:34:37.287,30603,-0.68,-0.59,0.53,1.05
18:34:37.288,30609,-0.64,-0.61,0.52,1.03
18:34:37.291,30615,-0.58,-0.61,0.52,0.99
18:34:37.294,30621,-0.52,-0.57,0.54,0.94
18:34:37.314,30627,-0.46,-0.53,0.57,0.91
18:34:37.315,30633,-0.42,-0.49,0.60,0.88
18:34:37.320,30639,-0.39,-0.48,0.60,0.86
18:34:37.349,30645,-0.38,-0.46,0.58,0.83
18:34:37.364,30651,-0.36,-0.46,0.59,0.83
18:34:37.364,30657,-0.35,-0.45,0.58,0.81
18:34:37.369,30663,-0.32,-0.47,0.57,0.80
18:34:37.369,30669,-0.32,-0.50,0.55,0.81
18:34:37.369,30675,-0.31,-0.53,0.56,0.83
18:34:37.369,30681,-0.31,-0.57,0.54,0.84
18:34:37.376,30687,-0.29,-0.62,0.52,0.86
18:34:37.379,30693,-0.27,-0.67,0.52,0.89
18:34:37.379,30699,-0.27,-0.71,0.49,0.91
18:34:37.380,30705,-0.25,-0.73,0.50,0.92
18:34:37.384,30711,-0.25,-0.71,0.55,0.93
18:34:37.394,30717,-0.25,-0.66,0.58,0.92
18:34:37.396,30723,-0.27,-0.61,0.61,0.90
18:34:37.407,30729,-0.28,-0.55,0.61,0.87
18:34:37.411,30735,-0.32,-0.51,0.62,0.86
18:34:37.414,30741,-0.34,-0.49,0.62,0.86
18:34:37.423,30747,-0.37,-0.45,0.62,0.85
18:34:37.426,30753,-0.40,-0.42,0.62,0.85
18:34:37.435,30759,-0.42,-0.40,0.64,0.86
18:34:37.438,30765,-0.46,-0.37,0.65,0.88
18:34:37.444,30771,-0.49,-0.36,0.67,0.90
18:34:37.451,30777,-0.49,-0.35,0.71,0.93
18:34:37.459,30783,-0.51,-0.36,0.73,0.96
18:34:37.462,30789,-0.52,-0.39,0.71,0.96
18:34:37.469,30795,-0.52,-0.46,0.72,1.00
18:34:37.480,30801,-0.52,-0.53,0.70,1.02
18:34:37.480,30807,-0.53,-0.61,0.69,1.06
18:34:37.488,30813,-0.54,-0.69,0.62,1.08
18:34:37.492,30819,-0.57,-0.74,0.57,1.09
18:34:37.502,30825,-0.60,-0.76,0.50,1.09
18:34:37.503,30831,-0.63,-0.74,0.46,1.08
18:34:37.513,30837,-0.63,-0.72,0.43,1.05
18:34:37.516,30843,-0.64,-0.70,0.37,1.02
18:34:37.523,30849,-0.63,-0.64,0.36,0.97
18:34:37.528,30855,-0.67,-0.52,0.33,0.91
18:34:37.538,30861,-0.70,-0.40,0.34,0.88
18:34:37.540,30867,-0.77,-0.34,0.33,0.90
18:34:37.550,30873,-0.84,-0.35,0.41,1.00
18:34:37.553,30879,-0.89,-0.34,0.40,1.03
18:34:37.559,30885,-1.04,-0.41,0.52,1.23
18:34:37.568,30891,-1.08,-0.50,0.27,1.22
18:34:37.569,30897,-1.11,-0.61,0.23,1.29
18:34:37.576,30903,-1.08,-0.67,0.17,1.28
18:34:37.584,30909,-0.99,-0.65,0.09,1.19
18:34:37.588,30915,-0.88,-0.53,0.03,1.03
18:34:37.595,30921,-0.74,-0.43,-0.11,0.86
18:34:37.604,30927,-0.70,-0.16,-0.10,0.73
18:34:37.606,30933,-0.69,-0.07,-0.11,0.71
18:34:37.612,30939,-0.65,0.13,-0.35,0.75
18:34:37.618,30945,-0.67,0.20,-0.43,0.82
18:34:37.627,30951,-0.63,0.17,-0.55,0.86
18:34:37.632,30957,-0.68,0.29,-0.56,0.92
18:34:37.638,30963,-0.79,0.12,-1.28,1.51
18:34:37.642,30969,-1.00,-0.07,-0.51,1.13
18:34:37.651,30975,-0.84,0.40,-0.52,1.07
18:34:37.654,30981,-0.61,0.12,-0.21,0.66
18:34:37.659,30987,-0.74,-0.23,-0.28,0.82
18:34:37.667,30993,-0.55,-0.57,-0.13,0.80
18:34:37.676,30999,-0.64,-0.47,-0.41,0.89
18:34:37.678,31005,-0.79,-0.67,-0.25,1.06
18:34:37.687,31011,-0.88,-0.70,-0.28,1.16
18:34:37.691,31017,-1.53,-0.72,-0.26,1.71
18:34:37.696,31023,-2.13,-0.24,-0.60,2.22
18:34:37.702,31029,-2.13,-0.07,0.39,2.16
18:34:37.711,31035,-2.13,-0.14,0.57,2.21
18:34:37.719,31041,-2.04,-0.48,0.32,2.12
18:34:37.720,31047,-1.12,-0.31,0.50,1.26
18:34:37.751,31053,-0.62,-0.05,0.25,0.67
18:34:37.753,31059,-0.61,0.30,0.14,0.70
18:34:37.754,31065,-0.58,0.16,0.33,0.68
18:34:37.756,31071,-0.66,0.09,0.25,0.72
18:34:37.758,31077,-0.75,-0.01,0.33,0.82
18:34:37.761,31083,-0.84,-0.23,0.49,1.00
18:34:37.792,31089,-0.92,-0.40,0.66,1.20
18:34:37.795,31095,-0.81,-0.69,0.67,1.25
18:34:37.795,31101,-0.58,-1.22,0.48,1.44
18:34:37.796,31107,-0.96,-0.76,0.28,1.26
18:34:37.798,31113,-1.05,-1.01,0.55,1.56
18:34:37.802,31119,-1.04,-0.67,0.51,1.33
18:34:37.834,31125,-0.97,-0.47,0.61,1.24
18:34:37.836,31131,-1.02,-0.35,0.36,1.14
18:34:37.836,31137,-1.04,-0.29,0.46,1.18
18:34:37.838,31143,-0.96,-0.36,0.21,1.04
18:34:37.840,31149,-0.95,-0.34,0.12,1.01
18:34:37.840,31155,-0.93,-0.37,-0.02,1.00
18:34:37.876,31161,-0.94,-0.49,-0.12,1.07
18:34:37.876,31167,-0.85,-0.60,-0.10,1.05
18:34:37.880,31173,-0.90,-0.76,-0.13,1.19
18:34:37.920,31179,-0.85,-0.85,-0.24,1.23
18:34:37.923,31185,-0.89,-0.94,-0.36,1.34
18:34:37.954,31191,-0.89,-0.91,-0.35,1.32
18:34:37.957,31197,-0.93,-0.85,-0.16,1.27
18:34:37.962,31203,-0.96,-0.69,-0.13,1.20
18:34:37.962,31209,-1.00,-0.53,0.01,1.13
18:34:37.962,31215,-1.04,-0.36,0.03,1.11
18:34:37.962,31221,-1.04,-0.23,0.04,1.06
18:34:37.962,31227,-0.99,-0.13,0.09,1.00
18:34:37.962,31233,-1.05,0.01,0.16,1.06
18:34:37.962,31239,-1.06,0.02,0.18,1.08
18:34:37.962,31245,-1.09,-0.02,0.13,1.10
18:34:37.962,31251,-1.09,-0.18,-0.00,1.11
18:34:37.962,31257,-1.01,-0.36,0.00,1.07
18:34:37.962,31263,-1.00,-0.51,-0.10,1.12
18:34:37.965,31269,-1.01,-0.68,-0.22,1.24
18:34:37.966,31275,-0.88,-0.73,-0.22,1.17
18:34:37.970,31281,-0.87,-0.72,-0.16,1.14
18:34:37.970,31287,-0.92,-0.67,-0.22,1.16
18:34:37.970,31293,-0.94,-0.69,-0.15,1.18
18:34:37.971,31299,-0.90,-0.48,0.08,1.03
18:34:37.979,31305,-0.85,-0.47,0.90,1.32
18:34:37.987,31311,-1.01,-0.39,0.09,1.08
18:34:37.990,31317,-1.14,-0.20,0.13,1.16
18:34:37.996,31323,-1.01,-0.17,0.12,1.04
18:34:38.002,31329,-1.00,-0.19,0.11,1.02
18:34:38.008,31335,-0.98,-0.26,0.05,1.02
18:34:38.014,31341,-0.98,-0.30,-0.01,1.02
18:34:38.019,31347,-0.97,-0.34,-0.05,1.03
18:34:38.026,31353,-0.98,-0.35,-0.07,1.04
18:34:38.032,31359,-0.98,-0.36,-0.06,1.05
18:34:38.041,31365,-0.98,-0.35,-0.07,1.05
18:34:38.044,31371,-1.00,-0.32,-0.07,1.06
18:34:38.051,31377,-1.00,-0.30,-0.06,1.05
18:34:38.056,31383,-1.00,-0.31,-0.06,1.05
18:34:38.062,31389,-1.01,-0.33,-0.06,1.06
18:34:38.071,31395,-1.01,-0.34,-0.05,1.06
18:34:38.075,31401,-0.99,-0.36,-0.05,1.06
18:34:38.080,31407,-0.98,-0.38,-0.04,1.05
18:34:38.088,31413,-0.98,-0.39,-0.04,1.05
18:34:38.097,31419,-0.98,-0.41,-0.04,1.06
18:34:38.098,31425,-0.97,-0.44,-0.04,1.07
18:34:38.104,31431,-0.99,-0.43,-0.03,1.08
18:34:38.111,31437,-1.02,-0.38,-0.00,1.09
18:34:38.116,31443,-1.03,-0.35,0.01,1.09
18:34:38.126,31449,-1.04,-0.36,0.00,1.10
18:34:38.128,31455,-1.01,-0.37,-0.01,1.08
18:34:38.138,31461,-1.01,-0.40,-0.01,1.09
18:34:38.140,31467,-1.03,-0.42,0.01,1.12
18:34:38.146,31473,-1.06,-0.45,0.04,1.15
18:34:38.151,31479,-1.11,-0.47,0.04,1.21
18:34:38.158,31485,-1.12,-0.48,0.02,1.22
18:34:38.164,31491,-1.07,-0.47,-0.03,1.18
18:34:38.192,31497,-1.05,-0.45,-0.04,1.14
18:34:38.195,31503,-1.05,-0.39,-0.04,1.12
18:34:38.195,31509,-1.08,-0.34,-0.01,1.13
18:34:38.197,31515,-1.10,-0.32,-0.01,1.14
18:34:38.197,31521,-1.12,-0.34,-0.04,1.17
18:34:38.200,31527,-1.13,-0.36,-0.06,1.19
18:34:38.206,31533,-1.13,-0.38,-0.07,1.19
18:34:38.215,31539,-1.12,-0.37,-0.07,1.18
18:34:38.219,31545,-1.11,-0.37,-0.06,1.18
18:34:38.225,31551,-1.10,-0.37,-0.07,1.16
18:34:38.231,31557,-1.08,-0.38,-0.07,1.15
18:34:38.235,31563,-1.07,-0.41,-0.09,1.15
18:34:38.246,31569,-1.05,-0.43,-0.09,1.14
18:34:38.249,31575,-1.04,-0.42,-0.07,1.13
18:34:38.257,31581,-1.05,-0.42,-0.07,1.13
18:34:38.260,31587,-1.04,-0.39,-0.07,1.12
18:34:38.267,31593,-1.04,-0.36,-0.07,1.10
18:34:38.273,31599,-1.04,-0.33,-0.07,1.09
18:34:38.282,31605,-1.02,-0.29,-0.08,1.07
18:34:38.284,31611,-1.03,-0.27,-0.06,1.06
18:34:38.294,31617,-1.02,-0.27,-0.07,1.05
18:34:38.299,31623,-1.01,-0.26,-0.08,1.04
18:34:38.304,31629,-0.99,-0.25,-0.08,1.02
18:34:38.311,31635,-1.00,-0.24,-0.08,1.03
18:34:38.313,31641,-1.01,-0.28,-0.10,1.06
18:34:38.323,31647,-1.10,-0.50,-0.28,1.24
18:34:38.326,31653,-1.10,-0.69,-0.22,1.32
18:34:38.332,31659,-1.22,-0.52,-0.24,1.34
18:34:38.343,31665,-1.32,-0.25,-0.20,1.36
18:34:38.346,31671,-1.38,-0.18,-0.07,1.40
18:34:38.350,31677,-1.41,-0.24,-0.09,1.43
18:34:38.356,31683,-1.47,-0.23,-0.13,1.49
18:34:38.364,31689,-1.49,-0.07,-0.39,1.55
18:34:38.368,31695,-1.60,0.03,-0.44,1.66
18:34:38.374,31701,-1.61,0.14,-0.51,1.69
18:34:38.380,31707,-1.68,0.10,-0.46,1.75
18:34:38.390,31713,-1.67,0.06,-0.41,1.72
18:34:38.393,31719,-1.62,0.09,-0.32,1.66
18:34:38.400,31725,-1.56,0.09,-0.15,1.57
18:34:38.404,31731,-1.34,-0.17,-0.19,1.36
18:34:38.410,31737,-1.29,-0.17,-0.14,1.31
18:34:38.415,31743,-1.24,-0.24,0.08,1.27
18:34:38.425,31749,-1.19,-0.33,0.27,1.26
18:34:38.428,31755,-1.02,-0.71,0.29,1.28
18:34:38.438,31761,-1.05,-0.73,0.42,1.34
18:34:38.440,31767,-1.08,-0.95,0.89,1.69
18:34:38.447,31773,-1.08,-1.12,0.81,1.75
18:34:38.452,31779,-1.19,-1.25,0.78,1.89
18:34:38.459,31785,-0.76,-1.19,0.85,1.65
18:34:38.465,31791,-1.00,-1.58,1.21,2.23
18:34:38.470,31797,-0.86,-1.77,0.52,2.03
18:34:38.475,31803,-0.61,-1.74,0.44,1.89
18:34:38.487,31809,-0.35,-1.34,0.49,1.47
18:34:38.489,31815,-0.40,-0.97,0.86,1.36
18:34:38.495,31821,-0.41,-0.73,0.77,1.14
18:34:38.500,31827,-0.51,-0.58,0.68,1.03
18:34:38.506,31833,-0.64,-0.46,0.67,1.04
18:34:38.512,31839,-0.70,-0.39,0.70,1.07
18:34:38.557,31845,-0.74,-0.35,0.76,1.11
18:34:38.558,31851,-0.72,-0.35,0.76,1.10
18:34:38.560,31857,-0.65,-0.40,0.69,1.03
18:34:38.562,31863,-0.58,-0.48,0.61,0.97
18:34:38.563,31869,-0.50,-0.53,0.52,0.90
18:34:38.563,31875,-0.43,-0.55,0.51,0.86
18:34:38.599,31881,-0.37,-0.55,0.52,0.84
18:34:38.600,31887,-0.32,-0.54,0.51,0.81
18:34:38.600,31893,-0.28,-0.53,0.51,0.79
18:34:38.600,31899,-0.25,-0.54,0.54,0.80
18:34:38.604,31905,-0.21,-0.53,0.57,0.81
18:34:38.604,31911,-0.18,-0.52,0.59,0.81
18:34:38.604,31917,-0.17,-0.51,0.56,0.78
18:34:38.604,31923,-0.17,-0.48,0.52,0.73
18:34:38.604,31929,-0.16,-0.49,0.49,0.71
18:34:38.645,31935,-0.18,-0.55,0.48,0.75
18:34:38.683,31941,-0.19,-0.60,0.48,0.80
18:34:38.683,31947,-0.21,-0.64,0.49,0.83
18:34:38.686,31953,-0.23,-0.68,0.50,0.88
18:34:38.724,31959,-0.24,-0.72,0.50,0.90
18:34:38.726,31965,-0.24,-0.74,0.52,0.93
18:34:38.726,31971,-0.27,-0.72,0.53,0.94
18:34:38.727,31977,-0.29,-0.68,0.57,0.93
18:34:38.762,31983,-0.30,-0.63,0.56,0.89
18:34:38.765,31989,-0.31,-0.59,0.57,0.87
18:34:38.765,31995,-0.31,-0.58,0.56,0.86
18:34:38.773,32001,-0.34,-0.55,0.57,0.86
18:34:38.773,32007,-0.35,-0.54,0.60,0.88
18:34:38.773,32013,-0.37,-0.52,0.60,0.88
18:34:38.773,32019,-0.42,-0.49,0.62,0.90
18:34:38.773,32025,-0.44,-0.46,0.64,0.90
18:34:38.773,32031,-0.48,-0.43,0.68,0.93
18:34:38.773,32037,-0.48,-0.42,0.71,0.95
18:34:38.773,32043,-0.50,-0.41,0.71,0.96
18:34:38.773,32049,-0.52,-0.41,0.73,0.98
18:34:38.773,32055,-0.55,-0.41,0.71,0.99
18:34:38.773,32061,-0.57,-0.42,0.68,0.98
18:34:38.773,32067,-0.60,-0.45,0.66,1.00
18:34:38.773,32073,-0.64,-0.49,0.65,1.03
18:34:38.773,32079,-0.68,-0.55,0.59,1.06
18:34:38.774,32085,-0.72,-0.59,0.54,1.08
18:34:38.774,32091,-0.75,-0.66,0.48,1.11
18:34:38.776,32097,-0.80,-0.69,0.45,1.15
18:34:38.781,32103,-0.85,-0.70,0.41,1.17
18:34:38.781,32109,-0.85,-0.67,0.41,1.16
18:34:38.788,32115,-0.84,-0.61,0.35,1.10
18:34:38.799,32121,-0.87,-0.52,0.22,1.04
18:34:38.799,32127,-0.89,-0.53,0.18,1.05
18:34:38.809,32133,-0.88,-0.40,0.09,0.97
18:34:38.814,32139,-0.87,-0.31,0.20,0.95
18:34:38.821,32145,-0.93,-0.27,0.37,1.04
18:34:38.824,32151,-0.99,-0.28,0.17,1.04
18:34:38.833,32157,-1.04,-0.32,0.15,1.09
18:34:38.836,32163,-1.04,-0.34,-0.10,1.10
18:34:38.842,32169,-0.99,-0.35,-0.16,1.07
18:34:38.852,32175,-0.88,-0.37,-0.37,1.03
18:34:38.855,32181,-0.77,-0.32,-0.41,0.93
18:34:38.862,32187,-0.69,-0.10,-0.48,0.85
18:34:38.868,32193,-0.63,-0.01,-0.50,0.80
18:34:38.879,32199,-0.61,0.10,-0.58,0.85
18:34:38.880,32205,-0.53,0.15,-0.59,0.81
18:34:38.884,32211,-0.67,0.14,-0.39,0.79
18:34:38.890,32217,-0.72,0.04,-0.39,0.82
18:34:38.896,32223,-0.64,0.10,-0.35,0.74
18:34:38.902,32229,-0.97,0.15,-0.29,1.03
18:34:38.912,32235,-0.76,0.02,-0.32,0.83
18:34:38.914,32241,-0.70,-0.06,-0.15,0.72
18:34:38.921,32247,-0.69,-0.26,-0.13,0.75
18:34:38.929,32253,-0.64,-0.31,0.00,0.71
18:34:38.932,32259,-0.62,-0.37,0.11,0.73
18:34:38.940,32265,-0.65,-0.41,0.17,0.79
18:34:38.944,32271,-0.71,-0.55,0.33,0.96
18:34:38.950,32277,-0.87,-0.59,0.36,1.11
18:34:38.956,32283,-1.62,-0.29,0.13,1.65
18:34:38.966,32289,-2.13,0.24,-0.59,2.22
18:34:38.968,32295,-2.13,0.03,-0.18,2.13
18:34:38.975,32301,-2.13,0.03,0.37,2.16
18:34:38.980,32307,-2.13,-0.32,0.04,2.15
18:34:38.990,32313,-1.13,-0.42,0.13,1.21
18:34:38.992,32319,-0.73,-0.06,0.28,0.78
18:34:39.002,32325,-0.56,0.05,0.09,0.57
18:34:39.007,32331,-0.25,-0.83,0.53,1.01
18:34:39.013,32337,-0.59,0.02,0.29,0.66
18:34:39.016,32343,-0.78,-0.05,0.40,0.88
18:34:39.022,32349,-0.92,-0.34,0.30,1.03
18:34:39.028,32355,-0.68,-1.14,0.39,1.38
18:34:39.037,32361,-0.76,-0.89,0.35,1.22
18:34:39.040,32367,-0.79,-1.12,0.40,1.43
18:34:39.046,32373,-1.11,-0.87,0.33,1.45
18:34:39.052,32379,-1.25,-0.75,0.66,1.60
18:34:39.062,32385,-1.06,-0.74,0.64,1.44
18:34:39.064,32391,-0.93,-0.60,0.41,1.18
18:34:39.072,32397,-0.99,-0.37,0.55,1.19
18:34:39.077,32403,-1.07,-0.13,0.38,1.15
18:34:39.085,32409,-0.99,-0.11,0.21,1.02
18:34:39.088,32415,-0.92,-0.08,0.17,0.94
18:34:39.095,32421,-0.89,-0.14,0.20,0.92
18:34:39.099,32427,-0.83,-0.47,0.15,0.97
18:34:39.108,32433,-0.90,-0.73,0.05,1.16
18:34:39.112,32439,-1.00,-0.98,-0.04,1.40
18:34:39.119,32445,-0.96,-1.11,-0.08,1.47
18:34:39.125,32451,-0.81,-1.20,-0.21,1.47
18:34:39.130,32457,-0.81,-1.20,-0.41,1.51
18:34:39.136,32463,-0.56,-1.11,-0.36,1.30
18:34:39.143,32469,-0.71,-0.70,0.08,1.00
18:34:39.148,32475,-1.06,-0.50,0.05,1.17
18:34:39.154,32481,-1.14,-0.35,0.12,1.19
18:34:39.159,32487,-1.02,-0.23,0.15,1.06
18:34:39.170,32493,-1.03,-0.19,0.14,1.06
18:34:39.172,32499,-1.05,-0.12,0.10,1.07
18:34:39.183,32505,-1.02,-0.19,0.05,1.04
18:34:39.183,32511,-0.98,-0.32,-0.04,1.03
18:34:39.193,32517,-0.97,-0.46,-0.05,1.07
18:34:39.195,32523,-0.96,-0.56,-0.06,1.11
18:34:39.222,32529,-0.95,-0.63,-0.07,1.15
18:34:39.223,32535,-0.95,-0.65,-0.10,1.16
18:34:39.224,32541,-0.97,-0.66,-0.14,1.18
18:34:39.226,32547,-0.93,-0.59,-0.07,1.11
18:34:39.331,32553,-0.97,-0.51,-0.05,1.10
18:34:39.331,32559,-1.01,-0.42,-0.15,1.11
18:34:39.332,32565,-0.94,-0.26,0.09,0.98
18:34:39.333,32571,-1.05,-0.23,0.06,1.07
18:34:39.337,32577,-1.00,-0.27,0.04,1.04
18:34:39.337,32583,-1.01,-0.32,-0.11,1.07
18:34:39.337,32589,-0.99,-0.35,-0.12,1.05
18:34:39.337,32595,-0.95,-0.34,-0.10,1.02
18:34:39.337,32601,-0.97,-0.35,-0.14,1.04
18:34:39.337,32607,-0.99,-0.36,-0.16,1.06
18:34:39.373,32613,-1.01,-0.35,-0.16,1.08
18:34:39.374,32619,-1.01,-0.32,-0.17,1.07
18:34:39.374,32625,-1.00,-0.32,-0.20,1.07
18:34:39.377,32631,-1.00,-0.34,-0.23,1.08
18:34:39.377,32637,-1.00,-0.37,-0.24,1.09
18:34:39.384,32643,-0.99,-0.36,-0.26,1.09
18:34:39.384,32649,-0.98,-0.34,-0.25,1.07
18:34:39.384,32655,-1.00,-0.33,-0.26,1.08
18:34:39.384,32661,-0.98,-0.33,-0.21,1.06
18:34:39.384,32667,-0.98,-0.35,-0.19,1.06
18:34:39.384,32673,-0.97,-0.36,-0.17,1.05
18:34:39.384,32679,-0.97,-0.36,-0.11,1.04
18:34:39.384,32685,-0.98,-0.38,-0.06,1.05
18:34:39.384,32691,-0.97,-0.39,-0.04,1.05
18:34:39.384,32697,-0.98,-0.38,-0.01,1.05
18:34:39.384,32703,-0.98,-0.40,0.01,1.06
18:34:39.416,32709,-0.98,-0.43,0.01,1.07
18:34:39.416,32715,-0.96,-0.45,0.03,1.07
18:34:39.418,32721,-0.95,-0.47,0.01,1.06
18:34:39.421,32727,-0.93,-0.49,0.02,1.05
18:34:39.451,32733,-0.95,-0.48,0.01,1.07
18:34:39.452,32739,-0.97,-0.47,0.01,1.08
18:34:39.452,32745,-0.98,-0.47,-0.00,1.09
18:34:39.454,32751,-1.02,-0.46,0.00,1.11
18:34:39.454,32757,-1.05,-0.42,0.01,1.13
18:34:39.455,32763,-1.07,-0.37,0.00,1.13
18:34:39.456,32769,-1.09,-0.36,-0.01,1.14
18:34:39.496,32775,-1.10,-0.38,-0.04,1.16
18:34:39.500,32781,-1.10,-0.43,-0.05,1.18
18:34:39.500,32787,-1.06,-0.47,-0.11,1.17
18:34:39.500,32793,-1.03,-0.49,-0.12,1.15
18:34:39.500,32799,-1.01,-0.48,-0.08,1.13
18:34:39.500,32805,-1.03,-0.45,-0.04,1.12
18:34:39.500,32811,-1.05,-0.45,-0.03,1.14
18:34:39.500,32817,-1.07,-0.46,-0.04,1.17
18:34:39.500,32823,-1.07,-0.49,-0.05,1.18
18:34:39.508,32829,-1.04,-0.53,-0.06,1.17
18:34:39.508,32835,-1.03,-0.51,-0.08,1.15
18:34:39.519,32841,-1.03,-0.47,-0.04,1.14
18:34:39.524,32847,-1.05,-0.43,-0.01,1.13
18:34:39.530,32853,-1.06,-0.41,0.01,1.13
18:34:39.532,32859,-1.06,-0.39,0.02,1.13
18:34:39.539,32865,-1.07,-0.39,0.03,1.14
18:34:39.545,32871,-1.06,-0.38,0.05,1.13
18:34:39.550,32877,-1.06,-0.37,0.05,1.12
18:34:39.560,32883,-1.05,-0.34,0.04,1.11
18:34:39.563,32889,-1.04,-0.33,0.04,1.10
18:34:39.568,32895,-1.03,-0.32,0.04,1.08
18:34:39.575,32901,-1.04,-0.30,0.06,1.08
18:34:39.580,32907,-1.04,-0.31,0.06,1.09
18:34:39.590,32913,-1.06,-0.41,-0.03,1.13
18:34:39.593,32919,-1.08,-0.64,-0.14,1.27
18:34:39.598,32925,-1.13,-0.64,-0.08,1.30
18:34:39.605,32931,-1.23,-0.37,0.05,1.29
18:34:39.610,32937,-1.29,-0.22,0.08,1.31
18:34:39.616,32943,-1.27,-0.09,0.08,1.28
18:34:39.623,32949,-1.35,-0.00,0.11,1.36
18:34:39.628,32955,-1.24,-0.13,-0.23,1.27
18:34:39.641,32961,-1.39,-0.00,-0.12,1.39
18:34:39.642,32967,-1.43,0.06,-0.23,1.45
18:34:39.646,32973,-1.52,0.18,-0.20,1.54
18:34:39.656,32979,-1.57,0.23,-0.26,1.61
18:34:39.659,32985,-1.66,0.21,-0.28,1.70
18:34:39.667,32991,-1.61,0.17,-0.26,1.64
18:34:39.673,32997,-1.63,0.27,-0.21,1.66
18:34:39.677,33003,-1.61,0.19,-0.19,1.63
18:34:39.685,33009,-1.57,0.22,-0.29,1.61
18:34:39.688,33015,-1.36,-0.09,-0.29,1.40
18:34:39.698,33021,-1.17,-0.31,-0.29,1.24
18:34:39.702,33027,-1.15,-0.63,-0.00,1.31
18:34:39.706,33033,-1.18,-0.69,0.17,1.38
18:34:39.714,33039,-0.90,-0.99,0.02,1.34
18:34:39.719,33045,-0.91,-1.84,0.86,2.22
18:34:39.725,33051,-0.99,-1.48,0.80,1.96
18:34:39.731,33057,-1.17,-1.46,0.74,2.01
18:34:39.739,33063,-1.28,-1.80,0.65,2.30
18:34:39.744,33069,-1.47,-1.69,0.18,2.25
18:34:39.748,33075,-1.33,-1.52,0.38,2.06
18:34:39.756,33081,-1.14,-1.84,0.15,2.17
18:34:39.760,33087,1.87,-1.25,1.88,2.93
18:34:39.769,33093,-0.78,-1.90,1.88,2.78
18:34:39.772,33099,0.17,-1.20,0.74,1.42
18:34:39.780,33105,0.00,-0.88,0.79,1.18
18:34:39.784,33111,-0.22,-0.68,0.85,1.11
18:34:39.790,33117,-0.21,-0.49,0.80,0.96
18:34:39.795,33123,-0.28,-0.36,0.81,0.92
18:34:39.806,33129,-0.48,-0.28,0.79,0.97
18:34:39.809,33135,-0.73,-0.16,0.79,1.09
18:34:39.817,33141,-0.77,-0.15,0.73,1.08
18:34:39.821,33147,-0.76,-0.18,0.76,1.09
18:34:39.827,33153,-0.62,-0.39,0.73,1.03
18:34:39.832,33159,-0.51,-0.48,0.63,0.95
18:34:39.841,33165,-0.47,-0.57,0.60,0.94
18:34:39.844,33171,-0.42,-0.62,0.50,0.90
18:34:39.849,33177,-0.37,-0.62,0.48,0.87
18:34:39.858,33183,-0.31,-0.57,0.50,0.82
18:34:39.862,33189,-0.25,-0.50,0.56,0.79
18:34:39.868,33195,-0.18,-0.44,0.56,0.74
18:34:39.877,33201,-0.14,-0.39,0.56,0.70
18:34:39.880,33207,-0.11,-0.37,0.51,0.64
18:34:39.886,33213,-0.08,-0.39,0.48,0.62
18:34:39.892,33219,-0.10,-0.46,0.43,0.63
18:34:39.898,33225,-0.12,-0.55,0.42,0.70
18:34:39.904,33231,-0.12,-0.64,0.42,0.78
18:34:39.909,33237,-0.11,-0.73,0.37,0.83
18:34:39.961,33243,-0.09,-0.82,0.37,0.90
18:34:39.961,33249,-0.07,-0.87,0.38,0.95
18:34:39.962,33255,-0.07,-0.87,0.38,0.95
18:34:39.963,33261,-0.11,-0.81,0.39,0.91
18:34:39.965,33267,-0.17,-0.76,0.47,0.91
18:34:39.968,33273,-0.20,-0.71,0.49,0.88
18:34:40.002,33279,-0.25,-0.66,0.51,0.87
18:34:40.003,33285,-0.30,-0.60,0.53,0.86
18:34:40.005,33291,-0.33,-0.56,0.56,0.86
18:34:40.005,33297,-0.37,-0.51,0.58,0.85
18:34:40.005,33303,-0.41,-0.44,0.63,0.87
18:34:40.006,33309,-0.42,-0.38,0.67,0.88
18:34:40.007,33315,-0.44,-0.32,0.71,0.89
18:34:40.047,33321,-0.46,-0.29,0.74,0.91
18:34:40.050,33327,-0.47,-0.29,0.77,0.95
18:34:40.083,33333,-0.49,-0.31,0.76,0.95
18:34:40.083,33339,-0.52,-0.36,0.74,0.97
18:34:40.083,33345,-0.56,-0.46,0.68,1.00
18:34:40.083,33351,-0.59,-0.57,0.63,1.04
18:34:40.083,33357,-0.63,-0.67,0.58,1.09
18:34:40.083,33363,-0.65,-0.77,0.51,1.13
18:34:40.083,33369,-0.66,-0.86,0.45,1.17
18:34:40.083,33375,-0.67,-0.92,0.39,1.20
18:34:40.087,33381,-0.66,-0.96,0.32,1.21
18:34:40.123,33387,-0.68,-0.95,0.32,1.21
18:34:40.127,33393,-0.67,-0.86,0.35,1.15
18:34:40.151,33399,-0.69,-0.69,0.29,1.02
18:34:40.151,33405,-0.80,-0.53,0.09,0.96
18:34:40.155,33411,-0.80,-0.36,0.12,0.88
18:34:40.155,33417,-0.89,-0.36,0.17,0.97
18:34:40.155,33423,-0.89,-0.22,0.28,0.96
18:34:40.155,33429,-1.04,-0.21,0.54,1.19
18:34:40.155,33435,-1.13,-0.32,0.26,1.21
18:34:40.155,33441,-1.21,-0.35,0.35,1.30
18:34:40.155,33447,-1.11,-0.42,0.03,1.19
18:34:40.155,33453,-0.99,-0.47,-0.17,1.11
18:34:40.162,33459,-0.83,-0.43,-0.30,0.98
18:34:40.162,33465,-0.65,-0.35,-0.42,0.85
18:34:40.190,33471,-0.52,-0.19,-0.50,0.75
18:34:40.194,33477,-0.53,-0.06,-0.61,0.82
18:34:40.194,33483,-0.50,0.07,-0.72,0.88
18:34:40.194,33489,-0.48,0.13,-0.69,0.85
18:34:40.196,33495,-0.66,0.10,-0.46,0.81
18:34:40.196,33501,-0.65,0.11,-0.53,0.85
18:34:40.201,33507,-0.63,-0.10,-0.39,0.74
18:34:40.201,33513,-0.50,-0.51,-0.06,0.72
18:34:40.203,33519,-0.77,0.05,-0.21,0.80
18:34:40.205,33525,-0.78,-0.21,-0.30,0.86
18:34:40.205,33531,-0.75,-0.18,-0.06,0.77
18:34:40.209,33537,-0.76,-0.33,0.24,0.86
18:34:40.215,33543,-1.21,-0.35,-0.02,1.26
18:34:40.224,33549,-2.13,-0.35,-0.45,2.20
18:34:40.228,33555,-2.13,-0.05,-0.24,2.14
18:34:40.234,33561,-2.13,-0.28,0.45,2.19
18:34:40.240,33567,-2.13,-0.49,-0.04,2.18
18:34:40.245,33573,-1.43,-0.97,0.02,1.73
18:34:40.252,33579,-0.78,-0.47,0.53,1.05
18:34:40.258,33585,-0.61,-0.00,0.13,0.62
18:34:40.265,33591,-0.49,-0.17,0.04,0.52
18:34:40.270,33597,-0.61,-0.14,0.24,0.67
18:34:40.276,33603,-0.63,-0.18,0.38,0.76
18:34:40.282,33609,-0.54,-0.39,0.53,0.85
18:34:40.288,33615,-0.53,-0.58,0.67,1.04
18:34:40.297,33621,-0.44,-1.31,0.80,1.60
18:34:40.302,33627,-0.69,-0.98,0.75,1.42
18:34:40.309,33633,-0.88,-1.19,0.75,1.66
18:34:40.312,33639,-0.83,-0.80,0.10,1.15
18:34:40.318,33645,-0.75,-0.77,1.00,1.47
18:34:40.327,33651,-1.09,-0.56,0.57,1.35
18:34:40.333,33657,-1.09,-0.33,0.87,1.43
18:34:40.335,33663,-1.18,-0.12,0.48,1.28
18:34:40.344,33669,-1.24,0.05,0.43,1.32
18:34:40.349,33675,-1.11,0.08,0.20,1.13
18:34:40.354,33681,-0.98,-0.02,0.11,0.99
18:34:40.359,33687,-1.02,-0.19,-0.05,1.04
18:34:40.368,33693,-0.75,-0.54,-0.12,0.93
18:34:40.372,33699,-0.68,-0.83,-0.12,1.08
18:34:40.379,33705,-0.76,-0.98,-0.16,1.25
18:34:40.392,33711,-0.80,-1.24,-0.11,1.48
18:34:40.392,33717,-0.80,-1.28,-0.20,1.52
18:34:40.399,33723,-0.76,-1.38,-0.27,1.60
18:34:40.405,33729,-0.43,-1.45,-0.36,1.55
18:34:40.408,33735,-0.78,-0.98,-0.13,1.26
18:34:40.417,33741,-0.92,-0.74,-0.18,1.19
18:34:40.421,33747,-1.08,-0.42,0.14,1.17
18:34:40.428,33753,-1.10,-0.16,0.11,1.11
18:34:40.432,33759,-1.01,-0.04,0.15,1.02
18:34:40.441,33765,-1.03,0.07,0.21,1.05
18:34:40.447,33771,-1.00,0.04,0.20,1.02
18:34:40.450,33777,-1.02,-0.16,0.10,1.03
18:34:40.460,33783,-1.07,-0.27,-0.14,1.11
18:34:40.465,33789,-1.07,-0.36,-0.15,1.14
18:34:40.468,33795,-0.99,-0.51,-0.06,1.11
18:34:40.474,33801,-0.95,-0.68,-0.14,1.17
18:34:40.479,33807,-0.94,-0.71,-0.13,1.18
18:34:40.489,33813,-1.01,-0.62,-0.12,1.20
18:34:40.492,33819,-0.91,-0.60,-0.04,1.09
18:34:40.499,33825,-0.87,-0.55,-0.03,1.03
18:34:40.507,33831,-0.95,-0.41,0.06,1.03
18:34:40.511,33837,-0.93,-0.44,0.18,1.05
18:34:40.516,33843,-0.99,-0.37,0.02,1.06
18:34:40.523,33849,-1.02,-0.27,0.10,1.06
18:34:40.529,33855,-1.01,-0.23,0.02,1.04
18:34:40.534,33861,-1.04,-0.30,0.02,1.08
18:34:40.539,33867,-0.97,-0.36,-0.07,1.03
18:34:40.545,33873,-0.94,-0.40,-0.02,1.03
18:34:40.560,33879,-0.97,-0.48,-0.13,1.09
18:34:40.561,33885,-0.93,-0.52,-0.12,1.08
18:34:40.574,33891,-0.91,-0.59,-0.17,1.09
18:34:40.575,33897,-0.92,-0.51,-0.10,1.06
18:34:40.576,33903,-0.94,-0.47,-0.06,1.05
18:34:40.595,33909,-0.95,-0.43,-0.06,1.05
18:34:40.608,33915,-0.96,-0.40,-0.04,1.05
18:34:40.610,33921,-0.98,-0.38,-0.03,1.05
18:34:40.611,33927,-0.98,-0.40,-0.02,1.06
18:34:40.612,33933,-0.97,-0.41,-0.02,1.06
18:34:40.613,33939,-0.97,-0.42,-0.02,1.05
18:34:40.618,33945,-0.97,-0.42,-0.01,1.06
18:34:40.628,33951,-0.97,-0.43,-0.01,1.06
18:34:40.629,33957,-0.97,-0.44,0.00,1.06
18:34:40.635,33963,-0.97,-0.43,0.01,1.06
18:34:40.642,33969,-0.98,-0.44,0.01,1.07
18:34:40.648,33975,-0.98,-0.46,0.02,1.09
18:34:40.654,33981,-0.98,-0.46,0.02,1.09
18:34:40.659,33987,-0.98,-0.45,0.02,1.08
18:34:40.669,33993,-0.98,-0.46,0.01,1.09
18:34:40.672,33999,-0.99,-0.47,0.02,1.09
18:34:40.678,34005,-0.99,-0.49,0.03,1.11
18:34:40.689,34011,-1.02,-0.52,0.02,1.14
18:34:40.691,34017,-1.02,-0.54,-0.01,1.16
18:34:40.699,34023,-1.01,-0.58,-0.02,1.16
18:34:40.703,34029,-0.99,-0.59,-0.05,1.15
18:34:40.711,34035,-0.99,-0.56,-0.06,1.14
18:34:40.715,34041,-0.99,-0.53,-0.04,1.12
18:34:40.721,34047,-1.01,-0.49,-0.05,1.13
18:34:40.726,34053,-1.02,-0.47,-0.06,1.13
18:34:40.752,34059,-1.04,-0.47,-0.09,1.14
18:34:40.754,34065,-1.05,-0.46,-0.09,1.15
18:34:40.756,34071,-1.07,-0.44,-0.10,1.16
18:34:40.792,34077,-1.07,-0.42,-0.08,1.15
18:34:40.794,34083,-1.07,-0.40,-0.06,1.14
18:34:40.795,34089,-1.06,-0.40,-0.07,1.14
18:34:40.828,34095,-1.03,-0.42,-0.07,1.12
18:34:40.828,34101,-1.00,-0.44,-0.07,1.10
18:34:40.832,34107,-1.00,-0.45,-0.05,1.09
18:34:40.832,34113,-1.00,-0.47,-0.04,1.11
18:34:40.832,34119,-1.01,-0.47,-0.04,1.12
18:34:40.832,34125,-1.01,-0.48,-0.04,1.12
18:34:40.833,34131,-1.02,-0.47,-0.02,1.13
18:34:40.834,34137,-1.01,-0.44,-0.03,1.11
18:34:40.862,34143,-1.01,-0.43,-0.03,1.10
18:34:40.864,34149,-1.00,-0.41,-0.02,1.08
18:34:40.868,34155,-1.00,-0.40,-0.01,1.08
18:34:40.868,34161,-1.00,-0.40,-0.01,1.08
18:34:40.868,34167,-1.03,-0.48,-0.09,1.14
18:34:40.868,34173,-1.05,-0.65,-0.17,1.25
18:34:40.868,34179,-1.07,-0.69,-0.12,1.28
18:34:40.868,34185,-1.15,-0.49,-0.02,1.25
18:34:40.868,34191,-1.22,-0.33,-0.03,1.26
18:34:40.904,34197,-1.26,-0.27,-0.07,1.30
18:34:40.906,34203,-1.26,-0.17,-0.03,1.27
18:34:40.906,34209,-1.24,-0.20,-0.16,1.26
18:34:40.908,34215,-1.18,-0.20,-0.18,1.21
18:34:40.908,34221,-1.20,-0.17,-0.14,1.22
18:34:40.910,34227,-1.28,-0.10,-0.09,1.29
18:34:40.910,34233,-1.39,-0.09,-0.03,1.40
18:34:40.946,34239,-1.52,-0.04,-0.22,1.54
18:34:40.947,34245,-1.56,-0.07,-0.17,1.57
18:34:40.947,34251,-1.63,0.03,-0.22,1.64
18:34:40.949,34257,-1.67,0.05,-0.13,1.67
18:34:40.950,34263,-1.56,0.02,-0.15,1.56
18:34:40.950,34269,-1.44,-0.02,-0.15,1.45
18:34:40.950,34275,-1.31,-0.11,-0.11,1.32
18:34:40.988,34281,-1.22,-0.25,-0.07,1.24
18:34:40.989,34287,-1.14,-0.33,-0.10,1.19
18:34:40.989,34293,-1.07,-0.45,0.00,1.16
18:34:40.991,34299,-1.04,-0.61,0.12,1.21
18:34:40.991,34305,-1.04,-0.79,0.34,1.35
18:34:40.991,34311,-1.04,-0.92,0.46,1.46
18:34:40.991,34317,-0.93,-1.15,0.57,1.58
18:34:41.004,34323,-0.97,-1.28,0.76,1.78
18:34:41.004,34329,-1.11,-1.63,0.34,2.00
18:34:41.012,34335,-0.51,-1.74,0.43,1.87
18:34:41.018,34341,-0.84,-1.84,0.43,2.07
18:34:41.019,34347,-0.68,-1.99,0.11,2.10
18:34:41.029,34353,-0.46,-1.82,0.24,1.89
18:34:41.031,34359,-0.31,-1.42,0.49,1.53
18:34:41.038,34365,-0.28,-0.99,0.87,1.35
18:34:41.044,34371,-0.31,-0.76,0.80,1.15
18:34:41.050,34377,-0.43,-0.53,0.85,1.09
18:34:41.059,34383,-0.57,-0.36,0.78,1.03
18:34:41.063,34389,-0.76,-0.21,0.80,1.12
18:34:41.068,34395,-0.86,-0.13,0.84,1.21
18:34:41.076,34401,-0.86,-0.09,0.87,1.23
18:34:41.080,34407,-0.74,-0.15,0.84,1.13
18:34:41.086,34413,-0.60,-0.30,0.75,1.01
18:34:41.095,34419,-0.51,-0.42,0.62,0.90
18:34:41.098,34425,-0.43,-0.50,0.57,0.88
18:34:41.104,34431,-0.37,-0.55,0.54,0.86
18:34:41.110,34437,-0.35,-0.55,0.50,0.82
18:34:41.116,34443,-0.34,-0.53,0.51,0.81
18:34:41.125,34449,-0.30,-0.52,0.51,0.78
18:34:41.129,34455,-0.27,-0.52,0.53,0.79
18:34:41.139,34461,-0.26,-0.52,0.52,0.78
18:34:41.145,34467,-0.24,-0.53,0.52,0.78
18:34:41.148,34473,-0.20,-0.56,0.51,0.78
18:34:41.152,34479,-0.20,-0.59,0.48,0.78
18:34:41.160,34485,-0.20,-0.62,0.43,0.78
18:34:41.167,34491,-0.21,-0.67,0.42,0.82
18:34:41.178,34497,-0.21,-0.72,0.44,0.87
18:34:41.179,34503,-0.19,-0.78,0.48,0.93
18:34:41.186,34509,-0.17,-0.81,0.49,0.96
18:34:41.193,34515,-0.17,-0.81,0.50,0.96
18:34:41.193,34521,-0.17,-0.76,0.53,0.94
18:34:41.199,34527,-0.21,-0.68,0.54,0.90
18:34:41.209,34533,-0.27,-0.58,0.54,0.83
18:34:41.212,34539,-0.33,-0.48,0.55,0.80
18:34:41.218,34545,-0.37,-0.41,0.57,0.79
18:34:41.226,34551,-0.40,-0.37,0.60,0.81
18:34:41.230,34557,-0.45,-0.32,0.62,0.83
18:34:41.236,34563,-0.47,-0.29,0.67,0.87
18:34:41.244,34569,-0.49,-0.26,0.71,0.90
18:34:41.252,34575,-0.49,-0.25,0.74,0.92
18:34:41.254,34581,-0.52,-0.24,0.74,0.93
18:34:41.260,34587,-0.53,-0.24,0.69,0.90
18:34:41.268,34593,-0.53,-0.28,0.65,0.89
18:34:41.276,34599,-0.53,-0.36,0.61,0.88
18:34:41.279,34605,-0.54,-0.44,0.59,0.91
18:34:41.286,34611,-0.56,-0.52,0.56,0.95
18:34:41.290,34617,-0.60,-0.61,0.54,1.01
18:34:41.296,34623,-0.63,-0.70,0.51,1.07
18:34:41.303,34629,-0.66,-0.77,0.49,1.12
18:34:41.309,34635,-0.65,-0.84,0.46,1.16
18:34:41.314,34641,-0.66,-0.88,0.42,1.18
18:34:41.321,34647,-0.65,-0.89,0.40,1.17
18:34:41.327,34653,-0.65,-0.85,0.36,1.13
18:34:41.334,34659,-0.69,-0.80,0.35,1.11
18:34:41.344,34665,-0.75,-0.71,0.33,1.08
18:34:41.344,34671,-0.80,-0.63,0.32,1.07
18:34:41.354,34677,-0.84,-0.53,0.29,1.03
18:34:41.356,34683,-0.89,-0.45,0.21,1.02
18:34:41.362,34689,-0.91,-0.42,0.19,1.02
18:34:41.368,34695,-0.88,-0.39,0.23,0.99
18:34:41.377,34701,-0.91,-0.38,0.18,1.01
18:34:41.380,34707,-0.90,-0.36,0.17,0.98
18:34:41.386,34713,-0.99,-0.31,0.19,1.05
18:34:41.393,34719,-0.98,-0.37,0.18,1.06
18:34:41.398,34725,-0.95,-0.42,0.01,1.04
18:34:41.408,34731,-0.92,-0.38,-0.09,1.00
18:34:41.410,34737,-0.88,-0.29,-0.08,0.93
18:34:41.419,34743,-0.79,-0.24,-0.15,0.83
18:34:41.422,34749,-0.74,-0.14,-0.23,0.79
18:34:41.428,34755,-0.74,-0.00,-0.27,0.79
18:34:41.495,34761,-0.75,0.08,-0.26,0.79
18:34:41.579,34767,-0.75,0.21,-0.41,0.88
18:34:41.579,34773,-0.70,0.11,-0.51,0.87
18:34:41.580,34779,-0.67,-0.05,-0.56,0.88
18:34:41.581,34785,-0.78,-0.01,-0.60,0.99
18:34:41.583,34791,-0.80,-0.14,-0.53,0.97
18:34:41.615,34797,-0.83,-0.39,-0.32,0.97
18:34:41.616,34803,-0.79,-0.31,-0.41,0.94
18:34:41.621,34809,-0.75,-0.36,-0.25,0.87
18:34:41.621,34815,-0.73,-0.34,-0.25,0.85
18:34:41.622,34821,-0.73,-0.34,-0.13,0.81
18:34:41.622,34827,-0.72,-0.32,-0.09,0.79
18:34:41.622,34833,-0.72,-0.30,-0.01,0.78
18:34:41.622,34839,-0.72,-0.37,0.07,0.82
18:34:41.622,34845,-0.77,-0.50,0.20,0.94
18:34:41.622,34851,-0.90,-0.52,0.21,1.06
18:34:41.622,34857,-1.32,-0.41,0.08,1.38
18:34:41.622,34863,-2.03,-0.25,-0.43,2.09
18:34:41.622,34869,-2.13,0.26,-0.45,2.19
18:34:41.622,34875,-2.13,0.16,0.25,2.15
18:34:41.622,34881,-2.13,-0.04,0.11,2.13
18:34:41.622,34887,-1.64,-0.41,0.03,1.70
18:34:41.624,34893,-0.93,-0.20,-0.12,0.96
18:34:41.624,34899,-0.46,-0.51,0.37,0.78
18:34:41.624,34905,-0.62,-0.04,0.07,0.62
18:34:41.624,34911,-0.75,-0.04,0.28,0.81
18:34:41.624,34917,-1.00,-0.01,-0.13,1.01
18:34:41.624,34923,-0.67,-0.20,0.06,0.70
18:34:41.624,34929,-0.24,-1.07,1.58,1.92
18:34:41.624,34935,-0.47,-1.05,0.59,1.29
18:34:41.624,34941,-0.60,-1.05,0.82,1.46
18:34:41.624,34947,-0.88,-1.08,0.60,1.52
18:34:41.660,34953,-0.94,-0.88,0.67,1.46
18:34:41.663,34959,-1.11,-0.72,0.63,1.46
18:34:41.663,34965,-1.19,-0.59,0.56,1.44
18:34:41.663,34971,-1.16,-0.32,0.60,1.34
18:34:41.666,34977,-1.09,-0.11,0.56,1.23
18:34:41.666,34983,-1.07,0.02,0.42,1.15
18:34:41.666,34989,-1.06,0.07,0.26,1.09
18:34:41.687,34995,-1.03,0.04,0.19,1.05
18:34:41.687,35001,-0.93,-0.12,0.17,0.95
18:34:41.691,35007,-0.83,-0.34,0.08,0.90
18:34:41.691,35013,-0.79,-0.61,0.01,0.99
18:34:41.696,35019,-0.83,-0.78,0.02,1.14
18:34:41.699,35025,-0.91,-1.08,-0.15,1.42
18:34:41.706,35031,-0.89,-1.21,-0.20,1.52
18:34:41.710,35037,-0.71,-1.30,-0.23,1.50
18:34:41.715,35043,-0.71,-1.36,-0.41,1.59
18:34:41.726,35049,-0.85,-1.23,-0.50,1.57
18:34:41.729,35055,-0.81,-0.85,-0.27,1.20
18:34:41.736,35061,-0.87,-0.57,-0.17,1.06
18:34:41.739,35067,-1.01,-0.39,0.05,1.08
18:34:41.746,35073,-1.02,-0.24,0.05,1.05
18:34:41.752,35079,-1.01,-0.13,0.10,1.03
18:34:41.762,35085,-1.03,-0.09,0.10,1.04
18:34:41.769,35091,-1.04,-0.08,0.12,1.05
18:34:41.770,35097,-1.02,-0.27,0.04,1.06
18:34:41.778,35103,-1.03,-0.40,-0.01,1.10
18:34:41.786,35109,-0.97,-0.52,0.03,1.10
18:34:41.788,35115,-0.94,-0.63,-0.02,1.13
18:34:41.797,35121,-0.93,-0.67,-0.03,1.15
18:34:41.800,35127,-0.92,-0.68,-0.07,1.15
18:34:41.806,35133,-0.91,-0.64,-0.04,1.12
18:34:41.811,35139,-0.90,-0.56,0.06,1.06
18:34:41.821,35145,-0.96,-0.48,0.01,1.07
18:34:41.824,35151,-0.96,-0.43,0.03,1.05
18:34:41.830,35157,-0.96,-0.40,0.02,1.04
18:34:41.839,35163,-0.96,-0.39,0.01,1.04
18:34:41.842,35169,-0.97,-0.37,-0.01,1.04
18:34:41.848,35175,-0.99,-0.36,-0.02,1.05
18:34:41.860,35181,-0.99,-0.36,-0.04,1.05
18:34:41.861,35187,-0.98,-0.38,-0.03,1.05
18:34:41.902,35193,-0.98,-0.39,-0.05,1.06
18:34:41.903,35199,-0.98,-0.40,-0.05,1.06
18:34:41.904,35205,-0.97,-0.43,-0.06,1.06
18:34:41.905,35211,-0.95,-0.45,-0.06,1.06
18:34:41.918,35217,-0.95,-0.46,-0.08,1.05
18:34:41.920,35223,-0.94,-0.45,-0.08,1.05
18:34:41.921,35229,-0.95,-0.44,-0.09,1.05
18:34:41.935,35235,-0.95,-0.43,-0.09,1.04
18:34:41.938,35241,-0.94,-0.43,-0.09,1.04
18:34:41.938,35247,-0.95,-0.44,-0.10,1.05
18:34:41.938,35253,-0.95,-0.46,-0.10,1.06
18:34:41.939,35259,-0.95,-0.46,-0.10,1.06
18:34:41.941,35265,-0.95,-0.46,-0.10,1.06
18:34:41.946,35271,-0.96,-0.46,-0.08,1.06
18:34:41.949,35277,-0.96,-0.46,-0.08,1.07
18:34:41.956,35283,-0.97,-0.45,-0.07,1.07
18:34:41.968,35289,-0.98,-0.45,-0.06,1.07
18:34:41.968,35295,-0.98,-0.44,-0.04,1.08
18:34:41.975,35301,-0.99,-0.44,-0.02,1.08
18:34:41.979,35307,-0.98,-0.44,-0.01,1.08
18:34:41.988,35313,-0.97,-0.45,-0.01,1.07
18:34:41.995,35319,-0.96,-0.45,0.01,1.06
18:34:41.998,35325,-0.96,-0.46,0.01,1.07
18:34:42.007,35331,-0.97,-0.48,0.01,1.08
18:34:42.033,35337,-0.97,-0.51,0.01,1.10
18:34:42.033,35343,-0.97,-0.50,0.01,1.10
18:34:42.034,35349,-0.97,-0.47,0.01,1.08
18:34:42.036,35355,-0.96,-0.44,0.01,1.06
18:34:42.037,35361,-0.97,-0.44,0.04,1.07
18:34:42.041,35367,-0.99,-0.45,0.04,1.09
18:34:42.045,35373,-1.00,-0.47,0.02,1.10
18:34:42.051,35379,-1.02,-0.49,0.01,1.13
18:34:42.058,35385,-1.01,-0.50,-0.04,1.13
18:34:42.065,35391,-1.02,-0.49,-0.04,1.13
18:34:42.071,35397,-1.02,-0.47,-0.03,1.12
18:34:42.080,35403,-1.00,-0.46,-0.01,1.10
18:34:42.081,35409,-1.00,-0.46,-0.01,1.10
18:34:42.088,35415,-0.99,-0.47,0.00,1.10
18:34:42.097,35421,-0.99,-0.49,0.01,1.10
18:34:42.099,35427,-0.98,-0.53,0.01,1.11
18:34:42.106,35433,-0.97,-0.54,0.01,1.11
18:34:42.115,35439,-0.96,-0.54,0.00,1.10
18:34:42.118,35445,-0.95,-0.56,-0.00,1.11
18:34:42.156,35451,-0.94,-0.55,0.00,1.09
18:34:42.157,35457,-0.95,-0.54,0.01,1.09
18:34:42.159,35463,-0.96,-0.52,0.03,1.09
18:34:42.161,35469,-0.98,-0.49,0.05,1.09
18:34:42.162,35475,-0.99,-0.46,0.06,1.09
18:34:42.162,35481,-1.00,-0.40,0.09,1.09
18:34:42.198,35487,-1.02,-0.36,0.11,1.09
18:34:42.202,35493,-1.03,-0.35,0.11,1.09
18:34:42.240,35499,-1.02,-0.36,0.08,1.09
18:34:42.240,35505,-1.02,-0.39,0.07,1.09
18:34:42.240,35511,-1.03,-0.47,0.00,1.13
18:34:42.240,35517,-1.06,-0.60,-0.09,1.22
18:34:42.240,35523,-1.07,-0.67,-0.10,1.27
18:34:42.240,35529,-1.15,-0.50,-0.03,1.25
18:34:42.240,35535,-1.21,-0.33,0.03,1.26
18:34:42.242,35541,-1.25,-0.20,0.05,1.27
18:34:42.243,35547,-1.24,-0.11,0.01,1.25
18:34:42.245,35553,-1.27,-0.14,-0.01,1.28
18:34:42.280,35559,-1.30,-0.05,-0.01,1.30
18:34:42.281,35565,-1.30,-0.08,-0.07,1.30
18:34:42.281,35571,-1.35,-0.02,0.16,1.36
18:34:42.282,35577,-1.45,0.10,0.08,1.45
18:34:42.283,35583,-1.50,0.20,0.00,1.51
18:34:42.321,35589,-1.54,0.19,0.12,1.55
18:34:42.321,35595,-1.55,0.25,0.08,1.57
18:34:42.323,35601,-1.53,0.25,0.09,1.55
18:34:42.327,35607,-1.50,0.21,0.10,1.52
18:34:42.327,35613,-1.42,0.12,-0.02,1.42
18:34:42.327,35619,-1.35,-0.07,-0.28,1.38
18:34:42.327,35625,-1.26,-0.20,-0.23,1.30
18:34:42.327,35631,-1.15,-0.32,-0.20,1.21
18:34:42.327,35637,-1.11,-0.50,-0.18,1.23
18:34:42.327,35643,-1.10,-0.64,-0.07,1.27
18:34:42.327,35649,-1.07,-0.88,0.19,1.40
18:34:42.327,35655,-1.02,-0.94,0.35,1.43
18:34:42.349,35661,-0.94,-1.07,0.58,1.54
18:34:42.350,35667,-0.98,-1.13,0.52,1.58
18:34:42.354,35673,-1.10,-1.32,0.46,1.78
18:34:42.355,35679,-1.16,-1.43,0.56,1.93
18:34:42.358,35685,-1.24,-1.65,0.30,2.08
18:34:42.366,35691,-1.13,-1.55,0.18,1.93
18:34:42.371,35697,-0.75,-1.58,-0.09,1.75
18:34:42.376,35703,-1.51,-1.24,0.42,2.00
18:34:42.386,35709,-0.31,-1.66,0.70,1.83
18:34:42.388,35715,-0.13,-1.43,0.36,1.48
18:34:42.395,35721,-0.15,-1.10,0.60,1.26
18:34:42.400,35727,-0.16,-0.93,0.60,1.12
18:34:42.405,35733,-0.26,-0.73,0.71,1.05
18:34:42.412,35739,-0.33,-0.62,0.71,1.00
18:34:42.421,35745,-0.51,-0.55,0.70,1.02
18:34:42.424,35751,-0.63,-0.48,0.65,1.03
18:34:42.430,35757,-0.76,-0.43,0.60,1.06
18:34:42.439,35763,-0.80,-0.49,0.56,1.10
18:34:42.442,35769,-0.67,-0.62,0.47,1.03
18:34:42.451,35775,-0.59,-0.72,0.46,1.03
18:34:42.455,35781,-0.53,-0.73,0.44,1.00
18:34:42.460,35787,-0.48,-0.74,0.45,0.99
18:34:42.470,35793,-0.42,-0.72,0.47,0.95
18:34:42.472,35799,-0.35,-0.69,0.48,0.91
18:34:42.478,35805,-0.28,-0.61,0.48,0.83
18:34:42.484,35811,-0.21,-0.57,0.46,0.76
18:34:42.489,35817,-0.17,-0.53,0.45,0.72
18:34:42.496,35823,-0.14,-0.50,0.43,0.68
18:34:42.503,35829,-0.13,-0.51,0.40,0.66
18:34:42.510,35835,-0.15,-0.55,0.39,0.69
18:34:42.516,35841,-0.16,-0.62,0.37,0.74
18:34:42.519,35847,-0.16,-0.69,0.41,0.82
18:34:42.529,35853,-0.17,-0.77,0.43,0.90
18:34:42.532,35859,-0.16,-0.85,0.46,0.97
18:34:42.542,35865,-0.16,-0.88,0.43,0.99
18:34:42.544,35871,-0.14,-0.91,0.41,1.01
18:34:42.551,35877,-0.11,-0.96,0.39,1.04
18:34:42.555,35883,-0.09,-1.00,0.41,1.08
18:34:42.562,35889,-0.09,-1.01,0.42,1.10
18:34:42.569,35895,-0.11,-0.98,0.44,1.08
18:34:42.577,35901,-0.15,-0.93,0.48,1.06
18:34:42.579,35907,-0.19,-0.88,0.50,1.03
18:34:42.587,35913,-0.22,-0.85,0.52,1.02
18:34:42.595,35919,-0.25,-0.79,0.55,1.00
18:34:42.598,35925,-0.29,-0.76,0.55,0.98
18:34:42.607,35931,-0.34,-0.70,0.57,0.96
18:34:42.610,35937,-0.37,-0.65,0.61,0.96
18:34:42.615,35943,-0.41,-0.62,0.63,0.97
18:34:42.626,35949,-0.45,-0.56,0.67,0.98
18:34:42.628,35955,-0.48,-0.53,0.70,1.00
18:34:42.635,35961,-0.51,-0.53,0.70,1.02
18:34:42.639,35967,-0.53,-0.56,0.68,1.03
18:34:42.646,35973,-0.56,-0.61,0.60,1.02
18:34:42.652,35979,-0.59,-0.67,0.53,1.04
18:34:42.662,35985,-0.62,-0.73,0.47,1.06
18:34:42.662,35991,-0.65,-0.78,0.43,1.10
18:34:42.672,35997,-0.66,-0.81,0.39,1.12
18:34:42.677,36003,-0.69,-0.85,0.38,1.16
18:34:42.682,36009,-0.68,-0.85,0.39,1.16
18:34:42.687,36015,-0.69,-0.81,0.40,1.14
18:34:42.694,36021,-0.73,-0.78,0.40,1.14
18:34:42.699,36027,-0.79,-0.72,0.41,1.14
18:34:42.708,36033,-0.84,-0.66,0.46,1.16
18:34:42.712,36039,-0.86,-0.54,0.52,1.14
18:34:42.722,36045,-0.88,-0.34,0.40,1.03
18:34:42.722,36051,-1.02,-0.21,0.24,1.07
18:34:42.731,36057,-1.00,-0.16,0.29,1.05
18:34:42.741,36063,-0.92,-0.11,0.30,0.97
18:34:42.742,36069,-0.94,-0.08,0.43,1.04
18:34:42.748,36075,-1.00,-0.06,0.33,1.06
18:34:42.757,36081,-1.10,-0.04,0.27,1.13
18:34:42.759,36087,-1.06,-0.04,0.15,1.08
18:34:42.765,36093,-1.00,-0.03,-0.07,1.00
18:34:42.774,36099,-0.88,-0.11,-0.29,0.93
18:34:42.779,36105,-0.74,-0.13,-0.57,0.95
18:34:42.785,36111,-0.69,-0.13,-0.72,1.00
18:34:42.790,36117,-0.64,-0.13,-0.83,1.05
18:34:42.796,36123,-0.61,-0.15,-0.81,1.02
18:34:42.807,36129,-0.74,-0.20,-0.89,1.17
18:34:42.808,36135,-0.77,-0.32,-0.74,1.12
18:34:42.842,36141,-0.80,-0.38,-0.57,1.06
18:34:42.843,36147,-0.78,-0.41,-0.48,1.00
18:34:42.845,36153,-0.74,-0.42,-0.33,0.91
18:34:42.846,36159,-0.72,-0.39,-0.24,0.86
18:34:42.862,36165,-0.72,-0.34,-0.16,0.82
18:34:42.875,36171,-0.70,-0.29,-0.05,0.76
18:34:42.876,36177,-0.71,-0.24,0.07,0.75
18:34:42.878,36183,-0.74,-0.25,0.18,0.81
18:34:42.892,36189,-0.78,-0.36,0.34,0.92
18:34:42.894,36195,-0.86,-0.42,0.36,1.02
18:34:42.894,36201,-1.03,-0.46,0.31,1.17
18:34:42.895,36207,-1.43,-0.37,0.14,1.49
18:34:42.897,36213,-2.01,-0.21,-0.23,2.03
18:34:42.900,36219,-2.12,-0.07,0.20,2.13
18:34:42.902,36225,-2.13,0.16,0.50,2.19
18:34:42.904,36231,-2.12,-0.05,0.32,2.14
18:34:42.909,36237,-1.43,-0.25,0.45,1.52
18:34:42.936,36243,-0.73,-0.22,0.55,0.94
18:34:42.937,36249,-0.54,-0.09,0.34,0.65
18:34:42.938,36255,-0.57,-0.06,0.28,0.63
18:34:42.939,36261,-0.49,-0.10,0.34,0.60
18:34:42.940,36267,-0.38,-0.14,0.46,0.61
18:34:42.977,36273,-0.37,-0.17,0.49,0.64
18:34:42.977,36279,-0.60,-0.34,0.47,0.83
18:34:42.979,36285,-0.81,-0.50,0.51,1.08
18:34:42.980,36291,-0.93,-0.64,0.61,1.28
18:34:42.983,36297,-0.98,-0.69,0.75,1.42
18:34:42.983,36303,-1.07,-0.65,0.63,1.41
18:34:42.983,36309,-1.21,-0.60,0.50,1.44
18:34:43.024,36315,-1.24,-0.46,0.48,1.41
18:34:43.024,36321,-1.18,-0.26,0.51,1.31
18:34:43.024,36327,-1.11,-0.15,0.47,1.21
18:34:43.025,36333,-1.05,-0.07,0.36,1.11
18:34:43.114,36339,-0.97,-0.03,0.29,1.02
18:34:43.114,36345,-0.91,-0.08,0.20,0.93
18:34:43.114,36351,-0.88,-0.23,0.12,0.92
18:34:43.118,36357,-0.90,-0.44,0.08,1.00
18:34:43.146,36363,-0.90,-0.62,0.02,1.09
18:34:43.147,36369,-0.92,-0.80,-0.09,1.22
18:34:43.148,36375,-0.91,-1.01,-0.25,1.39
18:34:43.148,36381,-0.87,-1.23,-0.40,1.56
18:34:43.157,36387,-0.84,-1.39,-0.52,1.71
18:34:43.157,36393,-0.85,-1.32,-0.62,1.69
18:34:43.157,36399,-0.86,-1.12,-0.36,1.46
18:34:43.157,36405,-0.71,-1.00,-0.17,1.24
18:34:43.157,36411,-0.88,-0.66,0.07,1.10
18:34:43.157,36417,-0.96,-0.51,0.25,1.12
18:34:43.157,36423,-1.04,-0.30,0.24,1.11
18:34:43.157,36429,-1.03,-0.13,0.31,1.09
18:34:43.157,36435,-1.02,0.05,0.46,1.12
18:34:43.157,36441,-1.02,0.10,0.42,1.11
18:34:43.157,36447,-1.03,0.08,0.43,1.12
18:34:43.157,36453,-1.10,-0.00,0.31,1.14
18:34:43.158,36459,-1.03,-0.29,0.03,1.07
18:34:43.158,36465,-1.02,-0.46,-0.05,1.12
18:34:43.158,36471,-0.98,-0.56,-0.09,1.14
18:34:43.158,36477,-0.92,-0.59,0.07,1.09
18:34:43.158,36483,-0.94,-0.62,-0.00,1.13
18:34:43.162,36489,-0.96,-0.59,0.02,1.13
18:34:43.168,36495,-0.96,-0.46,0.04,1.06
18:34:43.175,36501,-0.95,-0.36,0.08,1.02
18:34:43.180,36507,-0.98,-0.25,0.09,1.02
18:34:43.186,36513,-1.00,-0.18,0.11,1.02
18:34:43.220,36519,-1.02,-0.17,0.08,1.03
18:34:43.233,36525,-1.02,-0.18,0.09,1.04
18:34:43.234,36531,-1.01,-0.18,0.05,1.03
18:34:43.235,36537,-1.00,-0.22,0.01,1.03
18:34:43.257,36543,-0.98,-0.26,-0.00,1.01
18:34:43.257,36549,-1.03,-0.23,-0.03,1.05
18:34:43.262,36555,-0.98,-0.29,-0.05,1.03
18:34:43.279,36561,-0.94,-0.31,-0.04,0.99
18:34:43.279,36567,-1.00,-0.29,-0.00,1.04
18:34:43.280,36573,-1.11,-0.26,0.01,1.14
18:34:43.284,36579,-1.04,-0.35,0.12,1.10
18:34:43.284,36585,-0.99,-0.36,0.03,1.06
18:34:43.284,36591,-0.92,-0.38,-0.00,0.99
18:34:43.284,36597,-0.98,-0.37,0.02,1.05
18:34:43.284,36603,-0.97,-0.41,0.03,1.05
18:34:43.284,36609,-0.95,-0.45,0.04,1.05
18:34:43.288,36615,-0.93,-0.46,0.03,1.04
18:34:43.313,36621,-0.93,-0.60,-0.07,1.11
18:34:43.313,36627,-0.83,-0.52,-0.08,0.98
18:34:43.314,36633,-0.99,-0.50,0.04,1.10
18:34:43.315,36639,-0.95,-0.48,0.00,1.07
18:34:43.318,36645,-0.94,-0.46,0.07,1.05
18:34:43.324,36651,-0.95,-0.43,0.10,1.05
18:34:43.331,36657,-0.96,-0.41,0.09,1.05
18:34:43.336,36663,-0.95,-0.39,0.10,1.04
18:34:43.342,36669,-0.94,-0.40,0.10,1.03
18:34:43.353,36675,-0.93,-0.41,0.10,1.03
18:34:43.354,36681,-0.96,-0.44,0.10,1.06
18:34:43.360,36687,-0.95,-0.47,0.09,1.07
18:34:43.371,36693,-0.97,-0.49,0.12,1.10
18:34:43.374,36699,-0.99,-0.50,0.13,1.12
18:34:43.382,36705,-1.01,-0.48,0.12,1.13
18:34:43.383,36711,-1.04,-0.46,0.10,1.14
18:34:43.389,36717,-1.06,-0.43,0.07,1.15
18:34:43.396,36723,-1.08,-0.43,0.03,1.16
18:34:43.405,36729,-1.09,-0.41,0.00,1.16
18:34:43.409,36735,-1.10,-0.40,-0.01,1.17
18:34:43.415,36741,-1.09,-0.41,-0.06,1.16
18:34:43.419,36747,-1.10,-0.40,-0.11,1.18
18:34:43.430,36753,-1.10,-0.41,-0.13,1.18
18:34:43.434,36759,-1.07,-0.42,-0.15,1.16
18:34:43.439,36765,-1.06,-0.41,-0.16,1.15
18:34:43.448,36771,-1.06,-0.37,-0.14,1.13
18:34:43.449,36777,-1.06,-0.34,-0.10,1.12
18:34:43.456,36783,-1.07,-0.31,-0.10,1.12
18:34:43.465,36789,-1.05,-0.32,-0.08,1.10
18:34:43.470,36795,-1.03,-0.33,-0.07,1.08
18:34:43.475,36801,-1.01,-0.37,-0.09,1.08
18:34:43.481,36807,-1.00,-0.38,-0.06,1.07
18:34:43.486,36813,-1.00,-0.39,-0.03,1.07
18:34:43.491,36819,-1.01,-0.39,-0.02,1.08
18:34:43.502,36825,-1.01,-0.39,-0.02,1.09
18:34:43.503,36831,-1.02,-0.40,0.00,1.09
18:34:43.516,36837,-1.01,-0.39,0.00,1.08
18:34:43.517,36843,-1.01,-0.40,0.02,1.08
18:34:43.522,36849,-1.00,-0.43,0.02,1.09
18:34:43.531,36855,-1.02,-0.50,-0.01,1.13
18:34:43.535,36861,-1.05,-0.61,-0.04,1.21
18:34:43.540,36867,-1.07,-0.65,-0.01,1.25
18:34:43.548,36873,-1.12,-0.57,0.04,1.25
18:34:43.553,36879,-1.19,-0.43,0.05,1.26
18:34:43.562,36885,-1.21,-0.34,0.04,1.26
18:34:43.563,36891,-1.20,-0.27,0.03,1.23
18:34:43.569,36897,-1.15,-0.27,-0.04,1.18
18:34:43.576,36903,-1.11,-0.24,-0.08,1.14
18:34:43.582,36909,-1.09,-0.23,-0.07,1.12
18:34:43.623,36915,-1.09,-0.23,-0.06,1.11
18:34:43.623,36921,-1.11,-0.26,-0.08,1.14
18:34:43.624,36927,-1.17,-0.30,-0.14,1.22
18:34:43.626,36933,-1.26,-0.32,-0.21,1.31
18:34:43.627,36939,-1.32,-0.32,-0.19,1.37
18:34:43.628,36945,-1.37,-0.29,-0.20,1.41
18:34:43.665,36951,-1.39,-0.30,-0.15,1.43
18:34:43.665,36957,-1.43,-0.24,-0.18,1.46
18:34:43.667,36963,-1.36,-0.25,-0.23,1.40
18:34:43.669,36969,-1.30,-0.23,-0.29,1.35
18:34:43.669,36975,-1.28,-0.14,-0.18,1.30
18:34:43.669,36981,-1.21,-0.24,-0.26,1.26
18:34:43.669,36987,-1.17,-0.28,-0.15,1.21
18:34:43.669,36993,-1.09,-0.37,-0.06,1.15
18:34:43.708,36999,-1.05,-0.51,0.00,1.17
18:34:43.708,37005,-0.99,-0.68,0.13,1.21
18:34:43.708,37011,-0.98,-0.85,0.23,1.32
18:34:43.709,37017,-0.99,-0.98,0.46,1.47
18:34:43.710,37023,-0.94,-1.08,0.49,1.52
18:34:43.712,37029,-0.94,-1.16,0.46,1.56
18:34:43.712,37035,-0.70,-1.74,0.88,2.07
18:34:43.749,37041,-0.74,-1.68,0.57,1.92
18:34:43.749,37047,-0.81,-1.72,0.36,1.93
18:34:43.749,37053,-0.85,-1.81,0.16,2.01
18:34:43.750,37059,-0.51,-1.69,0.31,1.79
18:34:43.752,37065,-0.28,-1.52,0.42,1.61
18:34:43.753,37071,-0.30,-1.13,0.68,1.35
18:34:43.753,37077,-0.36,-0.81,0.77,1.17
18:34:43.790,37083,-0.49,-0.59,0.68,1.02
18:34:43.790,37089,-0.62,-0.44,0.60,0.97
18:34:43.793,37095,-0.73,-0.33,0.63,1.02
18:34:43.793,37101,-0.78,-0.31,0.71,1.10
18:34:43.793,37107,-0.77,-0.33,0.76,1.13
18:34:43.794,37113,-0.72,-0.44,0.77,1.14
18:34:43.794,37119,-0.67,-0.58,0.66,1.10
18:34:43.815,37125,-0.59,-0.68,0.58,1.07
18:34:43.815,37131,-0.49,-0.70,0.56,1.02
18:34:43.816,37137,-0.44,-0.66,0.57,0.98
18:34:43.817,37143,-0.39,-0.61,0.57,0.92
18:34:43.822,37149,-0.36,-0.57,0.57,0.88
18:34:43.827,37155,-0.33,-0.53,0.53,0.82
18:34:43.836,37161,-0.32,-0.53,0.50,0.80
18:34:43.840,37167,-0.32,-0.57,0.45,0.79
18:34:43.850,37173,-0.31,-0.60,0.45,0.82
18:34:43.853,37179,-0.28,-0.66,0.46,0.85
18:34:43.858,37185,-0.24,-0.71,0.45,0.88
18:34:43.865,37191,-0.23,-0.77,0.42,0.91
18:34:43.871,37197,-0.22,-0.83,0.42,0.96
18:34:43.879,37203,-0.19,-0.89,0.41,0.99
18:34:43.882,37209,-0.18,-0.94,0.40,1.04
18:34:43.892,37215,-0.19,-0.97,0.41,1.07
18:34:43.895,37221,-0.21,-0.92,0.40,1.03
18:34:43.904,37227,-0.23,-0.89,0.45,1.02
18:34:43.906,37233,-0.24,-0.84,0.48,1.00
18:34:43.912,37239,-0.28,-0.77,0.49,0.95
18:34:43.918,37245,-0.32,-0.71,0.51,0.93
18:34:43.925,37251,-0.36,-0.65,0.51,0.90
18:34:43.930,37257,-0.37,-0.60,0.51,0.87
18:34:43.937,37263,-0.36,-0.56,0.54,0.86
18:34:43.945,37269,-0.37,-0.53,0.59,0.88
18:34:43.948,37275,-0.40,-0.51,0.62,0.90
18:34:43.954,37281,-0.42,-0.50,0.64,0.91
18:34:43.959,37287,-0.46,-0.51,0.63,0.93
18:34:43.966,37293,-0.48,-0.56,0.62,0.97
18:34:43.975,37299,-0.49,-0.62,0.61,1.00
18:34:43.978,37305,-0.51,-0.69,0.60,1.04
18:34:43.987,37311,-0.54,-0.75,0.56,1.08
18:34:43.989,37317,-0.57,-0.79,0.49,1.09
18:34:43.999,37323,-0.57,-0.81,0.45,1.09
18:34:44.002,37329,-0.57,-0.82,0.39,1.07
18:34:44.011,37335,-0.59,-0.78,0.36,1.04
18:34:44.015,37341,-0.61,-0.77,0.38,1.06
18:34:44.019,37347,-0.63,-0.73,0.37,1.03
18:34:44.031,37353,-0.67,-0.69,0.40,1.04
18:34:44.032,37359,-0.71,-0.63,0.42,1.04
18:34:44.039,37365,-0.74,-0.57,0.45,1.04
18:34:44.046,37371,-0.80,-0.53,0.48,1.08
18:34:44.050,37377,-0.86,-0.47,0.52,1.11
18:34:44.058,37383,-0.83,-0.30,0.47,1.00
18:34:44.062,37389,-0.91,-0.11,0.18,0.93
18:34:44.072,37395,-0.93,-0.15,0.26,0.98
18:34:44.073,37401,-0.86,-0.07,0.37,0.94
18:34:44.083,37407,-0.82,-0.06,0.30,0.88
18:34:44.090,37413,-0.89,-0.15,0.54,1.05
18:34:44.096,37419,-0.96,-0.20,0.43,1.07
18:34:44.098,37425,-1.11,-0.23,0.29,1.16
18:34:44.105,37431,-1.04,-0.40,0.02,1.12
18:34:44.109,37437,-0.94,-0.45,-0.12,1.05
18:34:44.116,37443,-0.82,-0.46,-0.24,0.97
18:34:44.122,37449,-0.71,-0.47,-0.39,0.94
18:34:44.128,37455,-0.60,-0.43,-0.47,0.88
18:34:44.135,37461,-0.58,-0.39,-0.56,0.90
18:34:44.140,37467,-0.62,-0.36,-0.58,0.92
18:34:44.146,37473,-0.71,-0.32,-0.55,0.95
18:34:44.159,37479,-0.78,-0.29,-0.51,0.98
18:34:44.163,37485,-0.84,-0.25,-0.38,0.95
18:34:44.177,37491,-0.86,-0.21,-0.33,0.94
18:34:44.177,37497,-0.85,-0.17,-0.24,0.90
18:34:44.178,37503,-0.85,-0.15,-0.16,0.88
18:34:44.192,37509,-0.81,-0.14,-0.12,0.83
18:34:44.194,37515,-0.80,-0.12,-0.05,0.81
18:34:44.194,37521,-0.78,-0.18,-0.01,0.80
18:34:44.202,37527,-0.75,-0.25,0.07,0.80
18:34:44.207,37533,-0.78,-0.30,0.09,0.84
18:34:44.212,37539,-0.87,-0.39,0.14,0.97
18:34:44.218,37545,-0.98,-0.48,0.20,1.11
18:34:44.224,37551,-1.40,-0.43,0.02,1.47
18:34:44.230,37557,-1.95,-0.31,-0.46,2.03
18:34:44.240,37563,-2.13,-0.25,-0.17,2.15
18:34:44.243,37569,-2.00,-0.17,0.29,2.03
18:34:44.251,37575,-1.98,-0.35,0.26,2.03
18:34:44.256,37581,-1.39,-0.60,0.25,1.53
18:34:44.260,37587,-0.80,-0.42,0.36,0.97
18:34:44.268,37593,-0.62,-0.22,0.31,0.73
18:34:44.272,37599,-0.63,-0.06,0.36,0.73
18:34:44.281,37605,-0.60,0.00,0.31,0.68
18:34:44.292,37611,-0.60,-0.10,0.43,0.74
18:34:44.296,37617,-0.57,-0.14,0.61,0.85
18:34:44.296,37623,-0.69,-0.27,0.64,0.98
18:34:44.302,37629,-0.87,-0.46,0.66,1.18
18:34:44.308,37635,-0.95,-0.66,0.67,1.33
18:34:44.314,37641,-0.98,-0.84,0.62,1.43
18:34:44.319,37647,-1.01,-0.96,0.60,1.51
18:34:44.326,37653,-1.03,-0.85,0.41,1.40
18:34:44.332,37659,-1.05,-0.75,0.50,1.39
18:34:44.338,37665,-1.04,-0.50,0.55,1.28
18:34:44.344,37671,-1.10,-0.28,0.41,1.20
18:34:44.350,37677,-1.06,-0.08,0.42,1.15
18:34:44.386,37683,-1.01,0.05,0.34,1.07
18:34:44.387,37689,-0.93,0.12,0.35,1.00
18:34:44.388,37695,-0.93,0.12,0.26,0.98
18:34:44.392,37701,-0.93,-0.13,0.13,0.95
18:34:44.393,37707,-0.97,-0.38,-0.14,1.05
18:34:44.393,37713,-0.95,-0.59,-0.07,1.12
18:34:44.427,37719,-0.91,-0.81,-0.18,1.23
18:34:44.433,37725,-0.88,-1.10,-0.30,1.44
18:34:44.470,37731,-0.86,-1.23,-0.39,1.56
18:34:44.470,37737,-0.82,-1.32,-0.49,1.63
18:34:44.470,37743,-0.80,-1.12,-0.38,1.43
18:34:44.470,37749,-0.81,-0.88,-0.11,1.20
18:34:44.470,37755,-0.85,-0.65,0.03,1.07
18:34:44.470,37761,-0.97,-0.45,0.04,1.07
18:34:44.471,37767,-1.01,-0.28,0.14,1.06
18:34:44.473,37773,-0.99,-0.20,0.19,1.03
18:34:44.474,37779,-1.04,-0.08,0.20,1.06
18:34:44.511,37785,-1.04,-0.12,0.16,1.06
18:34:44.513,37791,-1.06,-0.23,0.07,1.09
18:34:44.513,37797,-1.02,-0.34,-0.04,1.08
18:34:44.513,37803,-0.98,-0.44,0.04,1.07
18:34:44.514,37809,-0.94,-0.57,-0.02,1.10
18:34:44.515,37815,-0.97,-0.63,-0.03,1.16
18:34:44.517,37821,-0.97,-0.64,-0.05,1.16
18:34:44.517,37827,-0.92,-0.59,0.04,1.10
18:34:44.554,37833,-0.90,-0.55,0.05,1.06
18:34:44.558,37839,-0.95,-0.43,0.08,1.04
18:34:44.558,37845,-0.97,-0.48,0.04,1.08
18:34:44.558,37851,-1.00,-0.40,0.08,1.08
18:34:44.598,37857,-0.99,-0.36,0.12,1.06
18:34:44.599,37863,-0.97,-0.37,0.10,1.04
18:34:44.610,37869,-0.97,-0.40,0.07,1.05
18:34:44.611,37875,-0.96,-0.36,0.04,1.03
18:34:44.614,37881,-0.98,-0.39,0.01,1.06
18:34:44.614,37887,-0.99,-0.39,0.00,1.06
18:34:44.614,37893,-0.97,-0.41,-0.01,1.05
18:34:44.614,37899,-0.95,-0.46,-0.06,1.06
18:34:44.614,37905,-0.96,-0.47,-0.07,1.07
18:34:44.614,37911,-0.95,-0.47,-0.07,1.06
18:34:44.614,37917,-0.91,-0.51,0.18,1.06
18:34:44.614,37923,-0.96,-0.44,-0.11,1.06
18:34:44.614,37929,-0.97,-0.37,-0.02,1.04
18:34:44.634,37935,-0.97,-0.33,0.02,1.02
18:34:44.636,37941,-0.98,-0.34,-0.00,1.04
18:34:44.637,37947,-0.97,-0.36,-0.01,1.03
18:34:44.638,37953,-0.96,-0.41,-0.03,1.04
18:34:44.642,37959,-0.95,-0.44,-0.05,1.05
18:34:44.642,37965,-0.95,-0.46,-0.05,1.06
18:34:44.644,37971,-0.95,-0.45,-0.04,1.06
18:34:44.649,37977,-0.96,-0.43,-0.04,1.05
18:34:44.657,37983,-0.97,-0.41,-0.02,1.06
18:34:44.662,37989,-0.98,-0.40,0.00,1.06
18:34:44.671,37995,-0.97,-0.40,0.01,1.05
18:34:44.680,38001,-0.96,-0.43,0.01,1.05
18:34:44.681,38007,-0.97,-0.43,0.01,1.06
18:34:44.685,38013,-0.97,-0.43,0.02,1.06
18:34:44.694,38019,-0.96,-0.44,0.01,1.05
18:34:44.699,38025,-0.96,-0.43,0.03,1.05
18:34:44.704,38031,-0.95,-0.44,0.03,1.05
18:34:44.710,38037,-0.96,-0.46,0.03,1.07
18:34:44.717,38043,-0.98,-0.47,0.02,1.08
18:34:44.722,38049,-0.97,-0.49,0.00,1.09
18:34:44.728,38055,-0.98,-0.50,-0.01,1.10
18:34:44.738,38061,-0.99,-0.48,-0.02,1.10
18:34:44.739,38067,-0.99,-0.48,-0.01,1.10
18:34:44.746,38073,-1.01,-0.49,-0.03,1.13
18:34:44.752,38079,-1.01,-0.50,-0.04,1.13
18:34:44.762,38085,-1.00,-0.50,-0.06,1.11
18:34:44.763,38091,-0.98,-0.47,-0.06,1.08
18:34:44.774,38097,-0.99,-0.41,-0.03,1.07
18:34:44.776,38103,-0.99,-0.38,0.01,1.06
18:34:44.786,38109,-0.98,-0.39,0.01,1.06
18:34:44.788,38115,-0.98,-0.42,-0.01,1.07
18:34:44.794,38121,-0.98,-0.46,-0.04,1.09
18:34:44.800,38127,-0.99,-0.47,-0.04,1.10
18:34:44.810,38133,-1.00,-0.48,-0.04,1.11
18:34:44.811,38139,-1.01,-0.45,-0.04,1.10
18:34:44.818,38145,-1.02,-0.45,-0.05,1.11
18:34:44.826,38151,-1.03,-0.43,-0.05,1.11
18:34:44.830,38157,-1.01,-0.43,-0.05,1.10
18:34:44.835,38163,-1.00,-0.44,-0.04,1.09
18:34:44.846,38169,-1.00,-0.44,-0.02,1.09
18:34:44.846,38175,-1.01,-0.44,0.03,1.10
18:34:44.858,38181,-1.02,-0.44,0.05,1.11
18:34:44.859,38187,-1.03,-0.43,0.06,1.12
18:34:44.866,38193,-1.02,-0.44,0.07,1.11
18:34:44.871,38199,-1.01,-0.43,0.06,1.10
18:34:44.878,38205,-1.00,-0.43,0.07,1.09
18:34:44.887,38211,-0.98,-0.40,0.08,1.06
18:34:44.890,38217,-0.99,-0.39,0.08,1.06
18:34:44.895,38223,-1.00,-0.43,0.05,1.08
18:34:44.902,38229,-1.03,-0.53,-0.02,1.16
18:34:44.911,38235,-1.06,-0.57,-0.00,1.20
18:34:44.915,38241,-1.16,-0.42,0.08,1.24
18:34:44.919,38247,-1.21,-0.29,0.08,1.25
18:34:44.926,38253,-1.24,-0.19,0.16,1.26
18:34:44.932,38259,-1.20,-0.15,0.07,1.21
18:34:44.938,38265,-1.24,-0.13,-0.03,1.24
18:34:44.944,38271,-1.19,-0.11,0.07,1.20
18:34:44.950,38277,-1.19,-0.09,0.04,1.19
18:34:44.955,38283,-1.33,-0.05,0.03,1.33
18:34:44.965,38289,-1.46,-0.02,-0.01,1.46
18:34:44.968,38295,-1.55,0.01,0.07,1.55
18:34:44.975,38301,-1.64,0.08,0.15,1.65
18:34:44.979,38307,-1.74,0.13,0.10,1.75
18:34:44.988,38313,-1.72,0.19,0.02,1.73
18:34:44.992,38319,-1.59,0.03,-0.13,1.59
18:34:44.998,38325,-1.40,-0.17,-0.39,1.47
18:34:45.007,38331,-1.19,-0.40,-0.48,1.35
18:34:45.009,38337,-1.10,-0.55,-0.31,1.27
18:34:45.019,38343,-0.96,-0.96,-0.53,1.46
18:34:45.022,38349,-0.98,-0.93,-0.20,1.37
18:34:45.032,38355,-0.86,-1.06,-0.08,1.37
18:34:45.033,38361,-0.92,-1.05,0.21,1.41
18:34:45.073,38367,-0.94,-1.14,0.43,1.54
18:34:45.075,38373,-0.92,-1.24,0.47,1.62
18:34:45.076,38379,-0.86,-1.37,0.53,1.70
18:34:45.078,38385,-0.92,-1.43,0.27,1.72
18:34:45.078,38391,-0.55,-1.54,0.29,1.66
18:34:45.079,38397,-0.73,-1.57,0.40,1.78
18:34:45.095,38403,-0.58,-1.60,0.08,1.70
18:34:45.095,38409,-0.51,-1.50,0.22,1.60
18:34:45.096,38415,-0.35,-1.31,0.48,1.44
18:34:45.097,38421,-0.23,-1.05,0.78,1.33
18:34:45.099,38427,-0.23,-0.88,0.86,1.25
18:34:45.137,38433,-0.32,-0.71,0.85,1.15
18:34:45.137,38439,-0.41,-0.55,0.76,1.03
18:34:45.138,38445,-0.53,-0.38,0.69,0.95
18:34:45.139,38451,-0.62,-0.30,0.63,0.93
18:34:45.142,38457,-0.68,-0.28,0.59,0.94
18:34:45.176,38463,-0.69,-0.34,0.57,0.96
18:34:45.177,38469,-0.63,-0.49,0.53,0.96
18:34:45.179,38475,-0.57,-0.67,0.40,0.97
18:34:45.180,38481,-0.53,-0.78,0.33,1.00
18:34:45.181,38487,-0.46,-0.89,0.29,1.05
18:34:45.182,38493,-0.40,-0.97,0.30,1.09
18:34:45.191,38499,-0.34,-1.00,0.33,1.11
18:34:45.193,38505,-0.31,-0.99,0.35,1.09
18:34:45.193,38511,-0.30,-0.95,0.34,1.05
18:34:45.197,38517,-0.29,-0.89,0.33,1.00
18:34:45.197,38523,-0.28,-0.81,0.34,0.93
18:34:45.235,38529,-0.23,-0.73,0.38,0.85
18:34:45.235,38535,-0.21,-0.67,0.41,0.82
18:34:45.235,38541,-0.20,-0.66,0.39,0.80
18:34:45.236,38547,-0.21,-0.71,0.38,0.83
18:34:45.238,38553,-0.18,-0.77,0.41,0.89
18:34:45.239,38559,-0.17,-0.84,0.43,0.96
18:34:45.277,38565,-0.18,-0.89,0.41,1.00
18:34:45.277,38571,-0.19,-0.93,0.40,1.02
18:34:45.278,38577,-0.16,-0.95,0.39,1.04
18:34:45.282,38583,-0.14,-0.94,0.42,1.04
18:34:45.282,38589,-0.14,-0.92,0.43,1.02
18:34:45.282,38595,-0.17,-0.85,0.47,0.98
18:34:45.282,38601,-0.20,-0.80,0.49,0.95
18:34:45.282,38607,-0.22,-0.74,0.51,0.93
18:34:45.319,38613,-0.25,-0.70,0.52,0.91
18:34:45.319,38619,-0.27,-0.67,0.53,0.90
18:34:45.319,38625,-0.31,-0.64,0.54,0.89
18:34:45.320,38631,-0.33,-0.60,0.56,0.88
18:34:45.322,38637,-0.35,-0.58,0.59,0.90
18:34:45.322,38643,-0.36,-0.56,0.64,0.92
18:34:45.322,38649,-0.38,-0.55,0.68,0.95
18:34:45.360,38655,-0.42,-0.56,0.69,0.98
18:34:45.360,38661,-0.47,-0.59,0.69,1.02
18:34:45.360,38667,-0.51,-0.62,0.67,1.04
18:34:45.362,38673,-0.53,-0.64,0.62,1.04
18:34:45.363,38679,-0.52,-0.68,0.57,1.03
18:34:45.363,38685,-0.53,-0.70,0.54,1.03
18:34:45.401,38691,-0.54,-0.73,0.47,1.02
18:34:45.401,38697,-0.57,-0.75,0.43,1.04
18:34:45.402,38703,-0.59,-0.78,0.39,1.06
18:34:45.402,38709,-0.62,-0.83,0.41,1.12
18:34:45.404,38715,-0.66,-0.84,0.43,1.16
18:34:45.405,38721,-0.68,-0.83,0.45,1.16
18:34:45.405,38727,-0.67,-0.72,0.42,1.07
18:34:45.426,38733,-0.75,-0.57,0.23,0.97
18:34:45.427,38739,-0.79,-0.48,0.22,0.95
18:34:45.428,38745,-0.82,-0.33,0.20,0.91
18:34:45.429,38751,-0.77,-0.19,0.25,0.83
18:34:45.430,38757,-0.99,-0.09,0.30,1.04
18:34:45.436,38763,-1.15,-0.15,0.41,1.23
18:34:45.442,38769,-1.13,-0.13,0.49,1.24
18:34:45.455,38775,-1.11,-0.34,0.44,1.24
18:34:45.455,38781,-1.08,-0.50,0.20,1.21
18:34:45.459,38787,-1.02,-0.57,-0.03,1.17
18:34:45.497,38793,-0.88,-0.58,-0.14,1.06
18:34:45.498,38799,-0.70,-0.51,-0.21,0.89
18:34:45.499,38805,-0.68,-0.29,-0.30,0.80
18:34:45.520,38811,-0.67,-0.28,-0.23,0.76
18:34:45.520,38817,-0.74,-0.05,-0.22,0.78
18:34:45.522,38823,-0.78,-0.01,-0.24,0.82
18:34:45.543,38829,-0.88,0.07,-0.22,0.91
18:34:45.544,38835,-0.89,0.10,-0.21,0.92
18:34:45.544,38841,-0.86,-0.02,-0.28,0.91
18:34:45.544,38847,-0.67,-0.07,-0.52,0.85
18:34:45.568,38853,-0.86,-0.02,-0.23,0.89
18:34:45.569,38859,-0.80,-0.15,-0.16,0.83
18:34:45.571,38865,-0.81,-0.23,-0.10,0.85
18:34:45.571,38871,-0.67,-0.24,-0.08,0.72
18:34:45.573,38877,-0.71,-0.36,-0.05,0.80
18:34:45.576,38883,-0.70,-0.49,0.03,0.85
18:34:45.576,38889,-0.76,-0.59,0.10,0.97
18:34:45.576,38895,-0.83,-0.69,0.18,1.09
18:34:45.576,38901,-1.03,-0.67,0.11,1.24
18:34:45.579,38907,-1.60,-0.46,-0.04,1.66
18:34:45.588,38913,-2.04,-0.20,-0.15,2.05
18:34:45.594,38919,-2.13,0.06,0.26,2.14
18:34:45.597,38925,-2.02,-0.07,0.46,2.07
18:34:45.603,38931,-1.87,-0.23,0.26,1.90
18:34:45.612,38937,-1.05,-0.37,0.56,1.25
18:34:45.618,38943,-0.72,-0.19,0.42,0.86
18:34:45.626,38949,-0.67,-0.05,0.26,0.72
18:34:45.627,38955,-0.60,0.03,0.18,0.63
18:34:45.634,38961,-0.46,-0.26,0.39,0.66
18:34:45.643,38967,-0.53,-0.14,0.57,0.79
18:34:45.645,38973,-0.67,-0.16,0.66,0.95
18:34:45.654,38979,-0.93,-0.35,0.69,1.21
18:34:45.658,38985,-1.00,-0.54,0.72,1.34
18:34:45.663,38991,-1.03,-0.70,0.81,1.48
18:34:45.672,38997,-1.10,-0.74,0.76,1.53
18:34:45.677,39003,-1.19,-0.66,0.57,1.48
18:34:45.683,39009,-1.18,-0.50,0.39,1.34
18:34:45.688,39015,-1.04,-0.33,0.37,1.15
18:34:45.693,39021,-0.89,-0.19,0.33,0.97
18:34:45.699,39027,-0.83,-0.11,0.25,0.87
18:34:45.709,39033,-0.83,-0.17,0.12,0.86
18:34:45.711,39039,-0.88,-0.35,-0.04,0.95
18:34:45.718,39045,-0.96,-0.52,-0.16,1.10
18:34:45.726,39051,-0.95,-0.62,-0.28,1.17
18:34:45.729,39057,-0.96,-1.11,-0.32,1.50
18:34:45.739,39063,-0.96,-1.19,-0.43,1.59
18:34:45.743,39069,-0.92,-1.27,-0.52,1.65
18:34:45.750,39075,-0.93,-1.13,-0.49,1.54
18:34:45.754,39081,-0.91,-0.87,-0.38,1.31
18:34:45.760,39087,-0.92,-0.67,-0.12,1.14
18:34:45.770,39093,-0.95,-0.48,-0.03,1.06
18:34:45.772,39099,-0.98,-0.36,0.13,1.06
18:34:45.780,39105,-1.01,-0.22,0.19,1.05
18:34:45.786,39111,-1.02,-0.11,0.23,1.05
18:34:45.789,39117,-1.04,-0.02,0.32,1.09
18:34:45.796,39123,-1.02,-0.06,0.29,1.06
18:34:45.806,39129,-1.07,-0.14,0.12,1.09
18:34:45.806,39135,-1.05,-0.32,-0.03,1.09
18:34:45.813,39141,-1.04,-0.42,0.00,1.12
18:34:45.820,39147,-0.98,-0.48,-0.04,1.09
18:34:45.826,39153,-0.98,-0.54,-0.09,1.12
18:34:45.840,39159,-0.98,-0.56,-0.10,1.13
18:34:45.842,39165,-0.96,-0.53,-0.06,1.10
18:34:45.847,39171,-0.97,-0.46,-0.02,1.07
18:34:45.872,39177,-0.97,-0.36,0.05,1.04
18:34:45.873,39183,-1.00,-0.30,0.02,1.05
18:34:45.874,39189,-0.99,-0.31,0.07,1.04
18:34:45.875,39195,-1.00,-0.28,0.07,1.04
18:34:45.878,39201,-1.00,-0.31,0.09,1.05
18:34:45.880,39207,-0.98,-0.30,0.01,1.03
18:34:45.910,39213,-1.01,-0.27,0.01,1.04
18:34:45.911,39219,-0.98,-0.31,0.05,1.03
18:34:45.912,39225,-0.92,-0.21,0.03,0.94
18:34:45.913,39231,-0.95,-0.29,0.00,0.99
18:34:45.930,39237,-1.08,-0.26,0.03,1.11
18:34:45.944,39243,-0.99,-0.23,-0.08,1.02
18:34:45.944,39249,-1.06,-0.23,-0.04,1.08
18:34:45.946,39255,-1.07,-0.40,0.04,1.14
18:34:45.959,39261,-0.97,-0.36,-0.09,1.04
18:34:45.961,39267,-0.96,-0.43,-0.20,1.07
18:34:45.961,39273,-0.96,-0.44,0.13,1.06
18:34:45.962,39279,-0.75,-0.58,-0.14,0.96
18:34:45.963,39285,-0.97,-0.51,0.00,1.10
18:34:45.965,39291,-1.00,-0.45,-0.04,1.10
18:34:45.970,39297,-0.90,-0.47,-0.05,1.02
18:34:45.976,39303,-0.92,-0.49,0.01,1.04
18:34:45.982,39309,-0.93,-0.49,0.00,1.05
18:34:45.988,39315,-0.96,-0.49,-0.02,1.07
18:34:45.994,39321,-0.95,-0.46,0.08,1.06
18:34:46.032,39327,-0.95,-0.45,0.08,1.05
18:34:46.032,39333,-0.95,-0.44,0.09,1.05
18:34:46.033,39339,-0.97,-0.43,0.14,1.07
18:34:46.034,39345,-0.94,-0.42,0.11,1.03
18:34:46.036,39351,-0.95,-0.43,0.10,1.05
18:34:46.063,39357,-0.96,-0.44,0.10,1.06
18:34:46.064,39363,-0.96,-0.45,0.10,1.07
18:34:46.065,39369,-0.97,-0.46,0.09,1.08
18:34:46.066,39375,-0.99,-0.47,0.07,1.10
18:34:46.068,39381,-0.99,-0.48,0.05,1.10
18:34:46.069,39387,-0.98,-0.47,0.04,1.09
18:34:46.105,39393,-0.98,-0.45,0.01,1.08
18:34:46.105,39399,-0.98,-0.44,0.00,1.07
18:34:46.107,39405,-0.98,-0.44,-0.03,1.07
18:34:46.107,39411,-0.97,-0.44,-0.05,1.06
18:34:46.110,39417,-0.95,-0.43,-0.06,1.05
18:34:46.110,39423,-0.96,-0.41,-0.05,1.05
18:34:46.147,39429,-0.98,-0.39,-0.02,1.05
18:34:46.147,39435,-1.02,-0.38,-0.00,1.09
18:34:46.147,39441,-1.03,-0.39,-0.01,1.10
18:34:46.148,39447,-1.04,-0.38,0.01,1.11
18:34:46.149,39453,-1.05,-0.37,0.02,1.11
18:34:46.152,39459,-1.05,-0.36,0.02,1.11
18:34:46.152,39465,-1.03,-0.36,0.01,1.09
18:34:46.187,39471,-1.01,-0.37,-0.01,1.08
18:34:46.187,39477,-0.98,-0.39,-0.02,1.06
18:34:46.187,39483,-0.95,-0.41,-0.04,1.04
18:34:46.188,39489,-0.93,-0.43,-0.04,1.02
18:34:46.190,39495,-0.91,-0.46,-0.04,1.02
18:34:46.191,39501,-0.90,-0.49,-0.03,1.02
18:34:46.192,39507,-0.90,-0.51,-0.01,1.04
18:34:46.225,39513,-0.92,-0.52,0.02,1.05
18:34:46.226,39519,-0.95,-0.50,0.05,1.07
18:34:46.227,39525,-0.97,-0.49,0.05,1.09
18:34:46.228,39531,-0.97,-0.48,0.05,1.08
18:34:46.228,39537,-0.96,-0.47,0.06,1.08
18:34:46.232,39543,-0.95,-0.46,0.06,1.06
18:34:46.240,39549,-0.97,-0.44,0.07,1.07
18:34:46.240,39555,-0.96,-0.44,0.08,1.05
18:34:46.240,39561,-0.98,-0.47,0.05,1.09
18:34:46.245,39567,-1.00,-0.58,-0.02,1.16
18:34:46.246,39573,-1.04,-0.71,-0.04,1.26
18:34:46.256,39579,-1.10,-0.69,-0.03,1.30
18:34:46.256,39585,-1.20,-0.51,0.07,1.31
18:34:46.263,39591,-1.25,-0.37,0.07,1.30
18:34:46.270,39597,-1.26,-0.29,0.04,1.29
18:34:46.275,39603,-1.29,-0.20,0.04,1.30
18:34:46.282,39609,-1.29,-0.18,0.05,1.30
18:34:46.288,39615,-1.30,-0.13,0.01,1.30
18:34:46.293,39621,-1.36,-0.06,0.08,1.36
18:34:46.300,39627,-1.42,0.01,-0.00,1.42
18:34:46.307,39633,-1.41,-0.05,-0.13,1.42
18:34:46.312,39639,-1.60,0.06,-0.02,1.60
18:34:46.319,39645,-1.60,-0.07,-0.09,1.60
18:34:46.324,39651,-1.58,0.01,-0.13,1.59
18:34:46.330,39657,-1.52,-0.11,-0.13,1.53
18:34:46.340,39663,-1.44,-0.16,-0.29,1.47
18:34:46.345,39669,-1.33,-0.27,-0.32,1.39
18:34:46.348,39675,-1.20,-0.41,-0.38,1.32
18:34:46.354,39681,-1.15,-0.49,-0.51,1.35
18:34:46.360,39687,-1.05,-0.84,-0.28,1.37
18:34:46.370,39693,-1.01,-0.86,-0.07,1.33
18:34:46.371,39699,-1.08,-0.83,0.23,1.39
18:34:46.379,39705,-0.96,-1.09,0.21,1.47
18:34:46.387,39711,-0.91,-1.13,0.50,1.53
18:34:46.390,39717,-0.89,-1.25,0.45,1.60
18:34:46.397,39723,-0.54,-1.30,1.32,1.93
18:34:46.406,39729,-0.78,-1.80,0.65,2.07
18:34:46.406,39735,-0.93,-1.83,0.27,2.07
18:34:46.413,39741,-0.98,-1.93,0.02,2.16
18:34:46.420,39747,-0.61,-1.75,-0.04,1.85
18:34:46.430,39753,-0.38,-1.55,-0.05,1.59
18:34:46.432,39759,-0.23,-1.23,0.75,1.46
18:34:46.439,39765,-0.15,-1.08,0.77,1.33
18:34:46.443,39771,-0.16,-0.93,0.91,1.31
18:34:46.454,39777,-0.25,-0.75,0.92,1.21
18:34:46.456,39783,-0.37,-0.58,0.88,1.12
18:34:46.462,39789,-0.51,-0.42,0.77,1.02
18:34:46.468,39795,-0.64,-0.31,0.71,1.01
18:34:46.474,39801,-0.68,-0.27,0.69,1.01
18:34:46.479,39807,-0.72,-0.26,0.75,1.07
18:34:46.486,39813,-0.64,-0.39,0.68,1.01
18:34:46.492,39819,-0.56,-0.55,0.56,0.97
18:34:46.499,39825,-0.51,-0.66,0.51,0.97
18:34:46.503,39831,-0.46,-0.73,0.48,0.99
18:34:46.510,39837,-0.40,-0.80,0.47,1.00
18:34:46.519,39843,-0.33,-0.80,0.45,0.98
18:34:46.522,39849,-0.27,-0.79,0.45,0.94
18:34:46.529,39855,-0.23,-0.72,0.46,0.88
18:34:46.533,39861,-0.22,-0.65,0.48,0.84
18:34:46.542,39867,-0.20,-0.57,0.50,0.78
18:34:46.546,39873,-0.19,-0.52,0.49,0.74
18:34:46.552,39879,-0.20,-0.52,0.44,0.71
18:34:46.559,39885,-0.24,-0.55,0.39,0.72
18:34:46.564,39891,-0.24,-0.65,0.40,0.80
18:34:46.570,39897,-0.24,-0.72,0.40,0.85
18:34:46.576,39903,-0.23,-0.82,0.41,0.95
18:34:46.586,39909,-0.23,-0.92,0.41,1.03
18:34:46.588,39915,-0.22,-0.99,0.39,1.08
18:34:46.594,39921,-0.17,-1.08,0.41,1.16
18:34:46.599,39927,-0.13,-1.12,0.42,1.20
18:34:46.606,39933,-0.08,-1.13,0.44,1.22
18:34:46.615,39939,-0.11,-1.07,0.42,1.16
18:34:46.619,39945,-0.14,-0.97,0.44,1.08
18:34:46.624,39951,-0.17,-0.89,0.50,1.03
18:34:46.634,39957,-0.21,-0.80,0.54,0.99
18:34:46.636,39963,-0.25,-0.73,0.56,0.95
18:34:46.642,39969,-0.31,-0.66,0.58,0.93
18:34:46.648,39975,-0.37,-0.57,0.61,0.91
18:34:46.654,39981,-0.39,-0.52,0.68,0.94
18:34:46.660,39987,-0.43,-0.46,0.75,0.98
18:34:46.701,39993,-0.49,-0.40,0.79,1.01
18:34:46.742,39999,-0.53,-0.38,0.80,1.04
18:34:46.743,40005,-0.57,-0.40,0.79,1.05
18:34:46.744,40011,-0.57,-0.46,0.73,1.04
18:34:46.745,40017,-0.58,-0.54,0.63,1.01
18:34:46.746,40023,-0.59,-0.63,0.56,1.03
18:34:46.783,40029,-0.60,-0.69,0.47,1.03
18:34:46.783,40035,-0.65,-0.76,0.43,1.09
18:34:46.783,40041,-0.68,-0.82,0.41,1.14
18:34:46.783,40047,-0.66,-0.86,0.39,1.15
18:34:46.783,40053,-0.66,-0.89,0.41,1.18
18:34:46.783,40059,-0.65,-0.88,0.39,1.16
18:34:46.783,40065,-0.67,-0.85,0.42,1.17
18:34:46.783,40071,-0.71,-0.74,0.50,1.14
18:34:46.784,40077,-0.72,-0.53,0.30,0.94
18:34:46.786,40083,-0.82,-0.33,0.15,0.90
18:34:46.787,40089,-0.89,-0.30,0.24,0.97
18:34:46.789,40095,-0.91,-0.22,0.26,0.97
18:34:46.824,40101,-0.89,-0.06,0.36,0.96
18:34:46.826,40107,-0.88,-0.15,0.49,1.02
18:34:46.826,40113,-1.01,-0.24,0.54,1.17
18:34:46.826,40119,-1.12,-0.36,0.23,1.20
18:34:46.912,40125,-1.08,-0.44,0.03,1.16
18:34:46.912,40131,-0.92,-0.53,-0.26,1.09
18:34:46.940,40137,-0.74,-0.50,-0.39,0.97
18:34:46.940,40143,-0.61,-0.36,-0.48,0.85
18:34:46.941,40149,-0.51,-0.21,-0.56,0.78
18:34:46.945,40155,-0.43,-0.12,-0.60,0.75
18:34:46.945,40161,-0.50,0.06,-0.59,0.78
18:34:46.945,40167,-0.65,0.10,-0.52,0.84
18:34:46.945,40173,-0.70,0.09,-0.33,0.77
18:34:46.945,40179,-0.52,-0.05,-0.42,0.67
18:34:46.945,40185,-0.88,0.01,-0.15,0.89
18:34:46.945,40191,-0.81,-0.15,-0.55,0.99
18:34:46.945,40197,-0.74,-0.05,-0.13,0.75
18:34:46.946,40203,-0.71,-0.20,0.05,0.74
18:34:46.946,40209,-0.66,-0.26,0.07,0.71
18:34:46.947,40215,-0.64,-0.29,0.24,0.74
18:34:46.949,40221,-0.65,-0.45,0.38,0.88
18:34:46.953,40227,-0.75,-0.57,0.47,1.06
18:34:46.955,40233,-1.12,-0.53,0.33,1.28
18:34:46.955,40239,-1.93,-0.63,0.19,2.04
18:34:46.955,40245,-2.13,0.10,-0.42,2.17
18:34:46.955,40251,-2.13,0.13,0.55,2.20
18:34:46.955,40257,-2.13,-0.28,0.39,2.18
18:34:46.955,40263,-1.77,-0.42,0.21,1.83
18:34:46.955,40269,-0.75,-0.90,0.33,1.21
18:34:46.955,40275,-0.60,-0.20,0.18,0.65
18:34:46.955,40281,-0.62,-0.17,0.30,0.71
18:34:46.959,40287,-0.52,-0.35,0.28,0.69
18:34:46.966,40293,-0.59,-0.31,0.24,0.71
18:34:46.972,40299,-0.68,-0.41,0.41,0.89
18:34:46.978,40305,-0.71,-0.63,0.57,1.11
18:34:46.983,40311,-0.74,-0.93,0.67,1.36
18:34:46.989,40317,-0.77,-1.10,0.78,1.55
18:34:46.997,40323,-0.89,-1.19,0.74,1.66
18:34:47.007,40329,-1.09,-1.14,0.54,1.66
18:34:47.007,40335,-1.20,-0.96,0.39,1.59
18:34:47.014,40341,-1.11,-0.61,0.52,1.37
18:34:47.023,40347,-0.98,-0.26,0.59,1.18
18:34:47.025,40353,-0.93,0.08,0.56,1.09
18:34:47.031,40359,-0.93,0.26,0.43,1.06
18:34:47.039,40365,-0.88,0.19,0.33,0.96
18:34:47.043,40371,-0.89,-0.15,0.23,0.93
18:34:47.054,40377,-0.97,-0.47,-0.02,1.07
18:34:47.055,40383,-0.97,-0.76,-0.06,1.24
18:34:47.062,40389,-0.96,-1.06,-0.21,1.45
18:34:47.068,40395,-0.96,-1.22,-0.37,1.60
18:34:47.073,40401,-0.87,-1.36,-0.55,1.70
18:34:47.080,40407,-0.85,-1.25,-0.55,1.61
18:34:47.089,40413,-0.89,-0.89,-0.41,1.32
18:34:47.092,40419,-0.94,-0.61,-0.11,1.12
18:34:47.101,40425,-0.98,-0.44,0.00,1.08
18:34:47.105,40431,-1.02,-0.24,0.17,1.07
18:34:47.109,40437,-1.04,-0.10,0.23,1.08
18:34:47.119,40443,-1.05,-0.01,0.27,1.09
18:34:47.122,40449,-1.04,0.09,0.30,1.09
18:34:47.153,40455,-1.01,-0.14,0.25,1.05
18:34:47.155,40461,-1.03,-0.30,-0.02,1.08
18:34:47.156,40467,-1.03,-0.39,-0.12,1.11
18:34:47.158,40473,-0.99,-0.50,-0.09,1.11
18:34:47.158,40479,-0.99,-0.57,-0.14,1.15
18:34:47.161,40485,-0.98,-0.61,-0.18,1.17
18:34:47.164,40491,-0.96,-0.58,-0.14,1.13
18:34:47.174,40497,-0.96,-0.52,-0.13,1.10
18:34:47.178,40503,-0.96,-0.46,-0.09,1.07
18:34:47.182,40509,-0.99,-0.39,-0.12,1.07
18:34:47.190,40515,-0.99,-0.29,-0.05,1.03
18:34:47.194,40521,-0.99,-0.29,-0.05,1.03
18:34:47.200,40527,-1.00,-0.29,-0.11,1.05
18:34:47.207,40533,-0.99,-0.34,-0.07,1.05
18:34:47.212,40539,-0.98,-0.30,-0.22,1.05
18:34:47.227,40545,-0.93,-0.31,-0.12,0.99
18:34:47.228,40551,-1.02,-0.33,-0.24,1.10
18:34:47.234,40557,-1.00,-0.21,-0.13,1.03
18:34:47.237,40563,-1.03,-0.14,-0.05,1.04
18:34:47.245,40569,-1.17,-0.42,0.01,1.24
18:34:47.248,40575,-1.15,-0.30,-0.03,1.19
18:34:47.265,40581,-0.93,-0.25,0.29,1.00
18:34:47.266,40587,-0.96,-0.33,0.23,1.04
18:34:47.272,40593,-0.75,-0.28,0.11,0.81
18:34:47.272,40599,-0.98,-0.57,-0.02,1.14
18:34:47.282,40605,-1.00,-0.50,-0.07,1.12
18:34:47.284,40611,-0.86,-0.48,-0.04,0.98
18:34:47.290,40617,-0.87,-0.50,-0.05,1.01
18:34:47.295,40623,-0.93,-0.55,-0.12,1.09
18:34:47.302,40629,-0.94,-0.57,-0.19,1.11
18:34:47.313,40635,-0.94,-0.55,-0.11,1.10
18:34:47.313,40641,-0.91,-0.49,0.05,1.04
18:34:47.319,40647,-0.88,-0.53,0.02,1.02
18:34:47.326,40653,-0.94,-0.49,0.09,1.06
18:34:47.332,40659,-0.94,-0.49,0.11,1.06
18:34:47.341,40665,-0.93,-0.49,0.10,1.06
18:34:47.345,40671,-0.95,-0.47,0.12,1.06
18:34:47.349,40677,-0.93,-0.46,0.11,1.05
18:34:47.356,40683,-0.93,-0.44,0.10,1.04
18:34:47.366,40689,-0.94,-0.43,0.09,1.04
18:34:47.367,40695,-0.94,-0.44,0.06,1.04
18:34:47.374,40701,-0.95,-0.46,0.04,1.06
18:34:47.383,40707,-0.95,-0.48,0.06,1.07
18:34:47.386,40713,-0.95,-0.50,0.07,1.07
18:34:47.396,40719,-0.95,-0.49,0.06,1.07
18:34:47.398,40725,-0.96,-0.48,0.07,1.08
18:34:47.404,40731,-0.97,-0.48,0.06,1.09
18:34:47.410,40737,-1.00,-0.51,0.07,1.12
18:34:47.416,40743,-0.98,-0.53,0.04,1.12
18:34:47.422,40749,-0.97,-0.52,0.01,1.10
18:34:47.428,40755,-0.96,-0.48,-0.01,1.08
18:34:47.433,40761,-0.97,-0.41,0.01,1.06
18:34:47.440,40767,-0.98,-0.39,-0.01,1.06
18:34:47.448,40773,-0.97,-0.40,-0.05,1.05
18:34:47.452,40779,-0.99,-0.41,-0.08,1.07
18:34:47.491,40785,-0.98,-0.44,-0.09,1.07
18:34:47.491,40791,-0.98,-0.44,-0.06,1.08
18:34:47.492,40797,-1.01,-0.42,-0.03,1.09
18:34:47.492,40803,-1.03,-0.42,-0.00,1.11
18:34:47.495,40809,-1.03,-0.42,-0.00,1.11
18:34:47.532,40815,-1.00,-0.44,0.00,1.09
18:34:47.533,40821,-0.97,-0.46,-0.02,1.07
18:34:47.533,40827,-0.93,-0.48,-0.02,1.05
18:34:47.535,40833,-0.92,-0.50,-0.02,1.05
18:34:47.536,40839,-0.93,-0.51,-0.02,1.06
18:34:47.536,40845,-0.93,-0.54,-0.01,1.08
18:34:47.573,40851,-0.94,-0.54,0.01,1.08
18:34:47.575,40857,-0.95,-0.52,0.03,1.09
18:34:47.578,40863,-0.96,-0.51,0.04,1.09
18:34:47.578,40869,-0.96,-0.48,0.06,1.07
18:34:47.578,40875,-0.95,-0.45,0.07,1.06
18:34:47.578,40881,-0.94,-0.43,0.06,1.03
18:34:47.578,40887,-0.91,-0.42,0.06,1.01
18:34:47.578,40893,-0.91,-0.40,0.08,1.00
18:34:47.578,40899,-0.91,-0.41,0.08,1.00
18:34:47.579,40905,-0.92,-0.42,0.10,1.01
18:34:47.616,40911,-0.93,-0.49,0.06,1.05
18:34:47.616,40917,-0.98,-0.68,-0.03,1.19
18:34:47.616,40923,-0.97,-0.78,0.01,1.25
18:34:47.619,40929,-1.11,-0.64,0.10,1.28
18:34:47.621,40935,-1.21,-0.46,0.19,1.31
18:34:47.621,40941,-1.26,-0.34,0.11,1.31
18:34:47.621,40947,-1.27,-0.30,0.06,1.31
18:34:47.658,40953,-1.26,-0.21,0.08,1.28
18:34:47.658,40959,-1.21,-0.22,0.07,1.24
18:34:47.658,40965,-1.22,-0.23,0.01,1.24
18:34:47.661,40971,-1.33,-0.13,0.02,1.34
18:34:47.662,40977,-1.42,-0.12,-0.00,1.43
18:34:47.664,40983,-1.65,-0.06,0.01,1.65
18:34:47.664,40989,-1.69,0.06,-0.34,1.73
18:34:47.683,40995,-1.64,0.09,0.06,1.65
18:34:47.684,41001,-1.57,0.06,-0.14,1.57
18:34:47.685,41007,-1.50,-0.08,-0.20,1.52
18:34:47.687,41013,-1.37,-0.13,-0.47,1.45
18:34:47.691,41019,-1.31,-0.19,-0.31,1.36
18:34:47.701,41025,-1.13,-0.36,-0.26,1.21
18:34:47.702,41031,-1.03,-0.54,-0.04,1.16
18:34:47.712,41037,-0.95,-0.67,-0.05,1.17
18:34:47.715,41043,-0.97,-0.73,0.05,1.22
18:34:47.724,41049,-0.93,-1.22,0.38,1.58
18:34:47.728,41055,-0.86,-1.05,0.51,1.45
18:34:47.732,41061,-0.98,-1.14,0.70,1.66
18:34:47.739,41067,-0.99,-1.13,0.42,1.56
18:34:47.746,41073,-1.10,-1.21,0.35,1.67
18:34:47.755,41079,-0.94,-1.36,0.26,1.67
18:34:47.756,41085,-1.22,-2.00,-0.39,2.38
18:34:47.767,41091,-0.77,-1.41,0.23,1.62
18:34:47.769,41097,-0.39,-1.60,0.50,1.72
18:34:47.775,41103,-0.41,-1.62,0.34,1.70
18:34:47.784,41109,-0.22,-1.28,0.52,1.40
18:34:47.788,41115,-0.15,-1.04,0.79,1.31
18:34:47.793,41121,-0.15,-0.84,0.82,1.18
18:34:47.802,41127,-0.26,-0.65,0.87,1.12
18:34:47.806,41133,-0.38,-0.49,0.82,1.03
18:34:47.812,41139,-0.55,-0.29,0.75,0.98
18:34:47.821,41145,-0.70,-0.19,0.76,1.05
18:34:47.823,41151,-0.75,-0.21,0.79,1.11
18:34:47.832,41157,-0.69,-0.27,0.80,1.09
18:34:47.835,41163,-0.59,-0.43,0.74,1.04
18:34:47.844,41169,-0.55,-0.55,0.63,1.00
18:34:47.848,41175,-0.48,-0.65,0.55,0.97
18:34:47.853,41181,-0.39,-0.65,0.53,0.93
18:34:47.862,41187,-0.31,-0.65,0.52,0.89
18:34:47.866,41193,-0.24,-0.63,0.53,0.86
18:34:47.872,41199,-0.19,-0.60,0.55,0.84
18:34:47.883,41205,-0.15,-0.56,0.59,0.82
18:34:47.885,41211,-0.15,-0.49,0.61,0.80
18:34:47.889,41217,-0.17,-0.42,0.57,0.73
18:34:47.900,41223,-0.22,-0.40,0.49,0.67
18:34:47.902,41229,-0.24,-0.42,0.47,0.67
18:34:47.910,41235,-0.21,-0.48,0.50,0.73
18:34:47.916,41241,-0.18,-0.54,0.52,0.77
18:34:47.919,41247,-0.15,-0.61,0.54,0.82
18:34:47.926,41253,-0.12,-0.70,0.51,0.87
18:34:47.936,41259,-0.10,-0.80,0.49,0.95
18:34:47.937,41265,-0.06,-0.86,0.50,1.00
18:34:47.946,41271,-0.06,-0.86,0.47,0.98
18:34:47.950,41277,-0.10,-0.82,0.43,0.93
18:34:47.955,41283,-0.14,-0.77,0.46,0.91
18:34:47.967,41289,-0.20,-0.69,0.50,0.87
18:34:47.967,41295,-0.27,-0.62,0.53,0.86
18:34:47.974,41301,-0.34,-0.53,0.55,0.84
18:34:47.983,41307,-0.39,-0.47,0.59,0.86
18:34:47.986,41313,-0.44,-0.39,0.64,0.87
18:34:47.992,41319,-0.47,-0.30,0.72,0.91
18:34:48.002,41325,-0.50,-0.22,0.77,0.94
18:34:48.002,41331,-0.52,-0.15,0.80,0.97
18:34:48.010,41337,-0.54,-0.13,0.82,0.99
18:34:48.015,41343,-0.58,-0.12,0.77,0.97
18:34:48.026,41349,-0.62,-0.16,0.74,0.98
18:34:48.027,41355,-0.65,-0.30,0.67,0.98
18:34:48.037,41361,-0.68,-0.45,0.62,1.02
18:34:48.039,41367,-0.70,-0.60,0.58,1.09
18:34:48.046,41373,-0.70,-0.76,0.50,1.15
18:34:48.052,41379,-0.67,-0.88,0.42,1.18
18:34:48.058,41385,-0.67,-0.97,0.34,1.23
18:34:48.064,41391,-0.65,-1.03,0.29,1.25
18:34:48.069,41397,-0.64,-1.02,0.28,1.24
18:34:48.078,41403,-0.67,-0.95,0.28,1.19
18:34:48.082,41409,-0.72,-0.82,0.30,1.14
18:34:48.092,41415,-0.78,-0.71,0.35,1.11
18:34:48.095,41421,-0.80,-0.58,0.37,1.05
18:34:48.104,41427,-0.83,-0.43,0.30,0.99
18:34:48.105,41433,-0.88,-0.36,0.21,0.97
18:34:48.111,41439,-0.89,-0.30,0.21,0.97
18:34:48.121,41445,-0.90,-0.24,0.27,0.97
18:34:48.122,41451,-0.93,-0.18,0.34,1.01
18:34:48.133,41457,-0.92,-0.21,0.41,1.03
18:34:48.136,41463,-0.98,-0.27,0.34,1.07
18:34:48.143,41469,-1.04,-0.37,0.26,1.14
18:34:48.151,41475,-1.03,-0.34,0.14,1.10
18:34:48.156,41481,-0.95,-0.37,-0.02,1.02
18:34:48.161,41487,-0.86,-0.34,-0.10,0.93
18:34:48.169,41493,-0.76,-0.26,-0.18,0.83
18:34:48.178,41499,-0.77,-0.18,-0.30,0.84
18:34:48.179,41505,-0.79,-0.08,-0.28,0.84
18:34:48.284,41511,-0.78,0.01,-0.48,0.92
18:34:48.285,41517,-0.82,0.05,-0.37,0.90
18:34:48.286,41523,-0.84,0.04,-0.45,0.95
18:34:48.286,41529,-0.78,-0.05,-0.47,0.91
18:34:48.287,41535,-0.75,-0.10,-0.44,0.87
18:34:48.288,41541,-0.72,-0.09,-0.40,0.83
18:34:48.325,41547,-0.67,-0.26,-0.29,0.77
18:34:48.325,41553,-0.80,-0.15,-0.33,0.88
18:34:48.327,41559,-0.81,-0.05,-0.23,0.84
18:34:48.330,41565,-0.73,-0.26,-0.11,0.78
18:34:48.330,41571,-0.69,-0.37,-0.05,0.79
18:34:48.330,41577,-0.70,-0.49,-0.04,0.86
18:34:48.330,41583,-0.68,-0.52,0.04,0.85
18:34:48.330,41589,-0.68,-0.54,0.04,0.87
18:34:48.330,41595,-0.68,-0.56,0.06,0.89
18:34:48.330,41601,-0.70,-0.56,0.10,0.90
18:34:48.330,41607,-0.83,-0.51,0.12,0.99
18:34:48.330,41613,-1.26,-0.35,0.08,1.31
18:34:48.330,41619,-2.11,-0.07,-0.43,2.16
18:34:48.330,41625,-2.13,0.20,0.13,2.14
18:34:48.330,41631,-2.13,0.39,0.52,2.22
18:34:48.332,41637,-2.13,0.39,0.37,2.19
18:34:48.332,41643,-1.54,0.27,0.44,1.63
18:34:48.332,41649,-0.80,0.15,0.24,0.85
18:34:48.332,41655,-0.77,0.25,-0.14,0.82
18:34:48.368,41661,-0.77,0.08,-0.14,0.79
18:34:48.368,41667,-0.85,-0.09,-0.25,0.89
18:34:48.369,41673,-0.89,-0.12,-0.30,0.94
18:34:48.370,41679,-0.96,-0.39,-0.23,1.06
18:34:48.373,41685,-0.95,-0.68,-0.17,1.18
18:34:48.373,41691,-0.83,-1.14,-0.03,1.42
18:34:48.373,41697,-0.83,-1.28,-0.05,1.52
18:34:48.406,41703,-1.10,-1.26,-0.13,1.67
18:34:48.408,41709,-0.93,-0.88,0.06,1.28
18:34:48.408,41715,-1.03,-0.54,0.78,1.41
18:34:48.409,41721,-1.40,-0.02,0.79,1.61
18:34:48.410,41727,-1.01,0.11,0.58,1.17
18:34:48.411,41733,-1.11,0.27,0.61,1.30
18:34:48.437,41739,-1.15,0.40,0.43,1.29
18:34:48.437,41745,-0.95,0.32,0.40,1.08
18:34:48.438,41751,-0.87,-0.22,0.32,0.95
18:34:48.439,41757,-0.83,-0.71,-0.17,1.11
18:34:48.441,41763,-0.89,-0.95,-0.11,1.30
18:34:48.441,41769,-0.88,-1.48,-0.28,1.74
18:34:48.449,41775,-0.82,-1.27,-0.17,1.53
18:34:48.454,41781,-0.73,-1.46,-0.31,1.66
18:34:48.460,41787,-0.08,-1.35,-0.91,1.63
18:34:48.468,41793,-0.63,-0.96,0.14,1.16
18:34:48.472,41799,-0.91,-0.58,0.10,1.09
18:34:48.479,41805,-1.14,-0.39,0.31,1.25
18:34:48.483,41811,-1.00,-0.10,0.25,1.04
18:34:48.489,41817,-1.04,0.02,0.21,1.06
18:34:48.498,41823,-1.12,0.03,0.25,1.15
18:34:48.502,41829,-1.19,-0.06,0.21,1.21
18:34:48.511,41835,-1.16,-0.28,0.18,1.21
18:34:48.514,41841,-1.05,-0.48,0.05,1.15
18:34:48.519,41847,-0.89,-0.54,0.05,1.04
18:34:48.530,41853,-0.85,-0.73,0.03,1.12
18:34:48.532,41859,-0.89,-0.77,-0.00,1.18
18:34:48.538,41865,-0.85,-0.64,-0.05,1.07
18:34:48.555,41871,-0.92,-0.52,0.01,1.06
18:34:48.556,41877,-0.93,-0.45,0.15,1.05
18:34:48.577,41883,-1.00,-0.41,0.08,1.08
18:34:48.577,41889,-1.00,-0.39,0.05,1.07
18:34:48.579,41895,-0.98,-0.37,0.05,1.05
18:34:48.580,41901,-0.97,-0.37,0.06,1.04
18:34:48.581,41907,-0.98,-0.41,0.04,1.06
18:34:48.586,41913,-0.96,-0.48,0.02,1.08
18:34:48.592,41919,-0.96,-0.52,-0.00,1.09
18:34:48.602,41925,-0.95,-0.52,-0.01,1.08
18:34:48.602,41931,-0.95,-0.49,-0.01,1.07
18:34:48.609,41937,-0.96,-0.45,-0.03,1.06
18:34:48.616,41943,-0.97,-0.42,-0.03,1.06
18:34:48.623,41949,-0.98,-0.42,-0.03,1.07
18:34:48.629,41955,-0.98,-0.42,-0.05,1.07
18:34:48.634,41961,-0.98,-0.43,-0.06,1.07
18:34:48.639,41967,-0.98,-0.43,-0.05,1.07
18:34:48.648,41973,-0.97,-0.45,-0.06,1.07
18:34:48.652,41979,-0.97,-0.47,-0.06,1.08
18:34:48.662,41985,-0.97,-0.48,-0.07,1.08
18:34:48.663,41991,-0.97,-0.48,-0.08,1.08
18:34:48.674,41997,-0.97,-0.48,-0.08,1.08
18:34:48.676,42003,-0.96,-0.49,-0.07,1.08
18:34:48.684,42009,-0.96,-0.49,-0.08,1.08
18:34:48.688,42015,-0.95,-0.48,-0.07,1.07
18:34:48.693,42021,-0.96,-0.45,-0.07,1.06
18:34:48.703,42027,-0.97,-0.43,-0.06,1.06
18:34:48.705,42033,-0.98,-0.41,-0.04,1.06
18:34:48.712,42039,-0.98,-0.41,-0.03,1.06
18:34:48.718,42045,-0.97,-0.42,-0.03,1.06
18:34:48.723,42051,-0.97,-0.46,-0.04,1.07
18:34:48.734,42057,-0.96,-0.47,-0.04,1.07
18:34:48.736,42063,-0.96,-0.48,-0.06,1.07
18:34:48.743,42069,-0.96,-0.48,-0.06,1.08
18:34:48.748,42075,-0.96,-0.48,-0.06,1.07
18:34:48.753,42081,-0.95,-0.48,-0.06,1.07
18:34:48.759,42087,-0.96,-0.46,-0.05,1.07
18:34:48.768,42093,-0.97,-0.45,-0.03,1.07
18:34:48.774,42099,-0.97,-0.42,-0.03,1.06
18:34:48.782,42105,-0.99,-0.41,-0.01,1.07
18:34:48.783,42111,-0.98,-0.41,-0.00,1.06
18:34:48.793,42117,-0.98,-0.42,0.00,1.07
18:34:48.795,42123,-0.97,-0.44,0.02,1.06
18:34:48.802,42129,-0.96,-0.45,0.01,1.06
18:34:48.808,42135,-0.96,-0.47,0.02,1.07
18:34:48.813,42141,-0.94,-0.48,0.04,1.05
18:34:48.820,42147,-0.94,-0.46,0.03,1.05
18:34:48.829,42153,-0.94,-0.45,0.03,1.04
18:34:48.832,42159,-0.95,-0.42,0.03,1.04
18:34:48.841,42165,-0.96,-0.42,0.03,1.04
18:34:48.844,42171,-0.96,-0.40,0.04,1.04
18:34:48.849,42177,-0.99,-0.37,0.04,1.05
18:34:48.855,42183,-0.98,-0.34,0.04,1.04
18:34:48.864,42189,-0.99,-0.35,0.01,1.05
18:34:48.868,42195,-0.99,-0.40,-0.01,1.07
18:34:48.905,42201,-0.98,-0.45,-0.05,1.07
18:34:48.905,42207,-0.97,-0.51,-0.08,1.10
18:34:48.906,42213,-0.96,-0.54,-0.09,1.10
18:34:48.907,42219,-0.94,-0.59,-0.10,1.12
18:34:48.910,42225,-0.92,-0.63,-0.10,1.12
18:34:48.946,42231,-0.91,-0.65,-0.06,1.12
18:34:48.947,42237,-0.89,-0.62,-0.02,1.09
18:34:48.948,42243,-0.89,-0.59,0.01,1.07
18:34:48.950,42249,-0.91,-0.56,0.04,1.07
18:34:48.952,42255,-0.90,-0.56,0.07,1.07
18:34:48.953,42261,-0.91,-0.57,0.10,1.07
18:34:48.983,42267,-0.92,-0.53,0.12,1.07
18:34:48.984,42273,-0.94,-0.47,0.13,1.05
18:34:48.984,42279,-0.96,-0.38,0.13,1.04
18:34:48.989,42285,-0.97,-0.33,0.10,1.03
18:34:49.027,42291,-0.99,-0.33,0.08,1.05
18:34:49.027,42297,-0.99,-0.38,0.04,1.06
18:34:49.028,42303,-0.98,-0.44,0.00,1.08
18:34:49.031,42309,-0.98,-0.49,-0.02,1.10
18:34:49.031,42315,-0.96,-0.53,-0.03,1.10
18:34:49.031,42321,-0.94,-0.52,-0.03,1.08
18:34:49.032,42327,-0.93,-0.51,-0.03,1.06
18:34:49.068,42333,-0.93,-0.48,-0.04,1.05
18:34:49.068,42339,-0.91,-0.46,-0.04,1.02
18:34:49.069,42345,-0.91,-0.45,-0.03,1.02
18:34:49.070,42351,-0.91,-0.44,-0.03,1.01
18:34:49.073,42357,-0.91,-0.41,-0.01,1.00
18:34:49.073,42363,-0.92,-0.39,-0.00,1.00
18:34:49.073,42369,-0.94,-0.38,0.00,1.02
18:34:49.073,42375,-0.95,-0.38,0.02,1.03
18:34:49.073,42381,-0.96,-0.38,0.02,1.04
18:34:49.073,42387,-0.97,-0.36,0.02,1.04
18:34:49.073,42393,-0.99,-0.35,0.03,1.05
18:34:49.073,42399,-0.98,-0.35,0.03,1.04
18:34:49.107,42405,-0.96,-0.37,0.02,1.03
18:34:49.107,42411,-0.95,-0.40,0.01,1.03
18:34:49.108,42417,-0.93,-0.43,0.03,1.03
18:34:49.110,42423,-0.94,-0.44,0.05,1.04
18:34:49.112,42429,-0.94,-0.45,0.06,1.04
18:34:49.112,42435,-0.94,-0.46,0.06,1.05
18:34:49.114,42441,-0.95,-0.46,0.06,1.06
18:34:49.119,42447,-0.95,-0.46,0.06,1.05
18:34:49.129,42453,-0.93,-0.43,0.07,1.03
18:34:49.137,42459,-0.93,-0.40,0.07,1.02
18:34:49.139,42465,-0.93,-0.39,0.07,1.01
18:34:49.143,42471,-0.93,-0.38,0.07,1.01
18:34:49.149,42477,-0.94,-0.40,0.07,1.02
18:34:49.159,42483,-0.94,-0.44,0.05,1.04
18:34:49.162,42489,-0.95,-0.47,0.04,1.06
18:34:49.170,42495,-0.95,-0.51,0.03,1.07
18:34:49.174,42501,-0.94,-0.52,0.04,1.07
18:34:49.184,42507,-0.93,-0.51,0.03,1.06
18:34:49.186,42513,-0.92,-0.50,0.05,1.05
18:34:49.197,42519,-0.92,-0.47,0.05,1.04
18:34:49.201,42525,-0.93,-0.47,0.07,1.04
18:34:49.204,42531,-0.93,-0.46,0.08,1.04
18:34:49.209,42537,-0.93,-0.45,0.08,1.03
18:34:49.219,42543,-0.93,-0.44,0.10,1.03
18:34:49.222,42549,-0.93,-0.44,0.10,1.04
18:34:49.229,42555,-0.93,-0.45,0.09,1.04
18:34:49.235,42561,-0.93,-0.47,0.07,1.04
18:34:49.239,42567,-0.93,-0.49,0.06,1.05
