time,timestamps,ax,ay,az,mag
18:24:37.189,34580,-0.85,-0.61,-0.06,1.05
18:24:37.206,34594,-0.85,-0.61,-0.08,1.05
18:24:37.216,34608,-0.86,-0.62,-0.08,1.06
18:24:37.234,34622,-0.85,-0.62,-0.08,1.06
18:24:37.253,34636,-0.84,-0.64,-0.08,1.05
18:24:37.269,34650,-0.83,-0.64,-0.07,1.05
18:24:37.272,34664,-0.83,-0.65,-0.08,1.06
18:24:37.289,34678,-0.82,-0.65,-0.07,1.05
18:24:37.303,34692,-0.82,-0.65,-0.05,1.05
18:24:37.319,34706,-0.81,-0.66,-0.02,1.05
18:24:37.328,34720,-0.81,-0.65,-0.02,1.04
18:24:37.347,34734,-0.80,-0.68,-0.01,1.05
18:24:37.364,34748,-0.81,-0.68,-0.01,1.06
18:24:37.371,34762,-0.81,-0.67,-0.00,1.05
18:24:37.389,34776,-0.80,-0.68,-0.01,1.05
18:24:37.449,34790,-0.78,-0.68,-0.03,1.04
18:24:37.450,34804,-0.80,-0.69,-0.03,1.06
18:24:37.451,34818,-0.81,-0.68,-0.03,1.06
18:24:37.453,34832,-0.80,-0.68,-0.04,1.05
18:24:37.454,34846,-0.80,-0.69,-0.05,1.05
18:24:37.489,34860,-0.80,-0.68,-0.04,1.06
18:24:37.491,34874,-0.81,-0.67,-0.04,1.05
18:24:37.495,34888,-0.82,-0.67,-0.04,1.06
18:24:37.531,34902,-0.82,-0.64,-0.06,1.04
18:24:37.533,34916,-0.83,-0.63,-0.09,1.05
18:24:37.572,34930,-0.86,-0.64,-0.10,1.07
18:24:37.574,34944,-0.83,-0.65,-0.11,1.06
18:24:37.574,34958,-0.80,-0.65,-0.12,1.03
18:24:37.613,34972,-0.80,-0.63,-0.11,1.03
18:24:37.615,34986,-0.85,-0.60,-0.06,1.04
18:24:37.615,35000,-0.85,-0.59,-0.04,1.04
18:24:37.632,35014,-0.83,-0.64,-0.04,1.05
18:24:37.636,35028,-0.83,-0.69,0.04,1.08
18:24:37.652,35042,-0.76,-0.72,0.03,1.05
18:24:37.672,35056,-0.74,-0.72,0.06,1.04
18:24:37.682,35070,-0.76,-0.70,0.07,1.04
18:24:37.694,35084,-0.76,-0.69,0.05,1.03
18:24:37.711,35098,-0.78,-0.68,0.01,1.03
18:24:37.720,35112,-0.79,-0.69,-0.05,1.04
18:24:37.735,35126,-0.80,-0.70,-0.07,1.06
18:24:37.755,35140,-0.79,-0.70,-0.06,1.06
18:24:37.763,35154,-0.76,-0.71,-0.07,1.05
18:24:37.782,35168,-0.75,-0.74,-0.05,1.06
18:24:37.792,35182,-0.75,-0.72,-0.05,1.04
18:24:37.806,35196,-0.77,-0.72,-0.06,1.06
18:24:37.821,35210,-0.78,-0.72,-0.06,1.06
18:24:37.837,35224,-0.79,-0.71,-0.06,1.06
18:24:37.870,35238,-0.79,-0.69,-0.07,1.05
18:24:37.871,35252,-0.79,-0.69,-0.12,1.05
18:24:37.875,35266,-0.79,-0.73,-0.16,1.08
18:24:37.890,35280,-0.77,-0.74,-0.18,1.09
18:24:37.908,35294,-0.81,-0.66,-0.15,1.06
18:24:37.916,35308,-0.82,-0.68,-0.12,1.07
18:24:37.935,35322,-0.79,-0.71,-0.15,1.07
18:24:37.947,35336,-0.77,-0.75,-0.17,1.09
18:24:37.960,35350,-0.77,-0.75,-0.17,1.09
18:24:37.979,35364,-0.78,-0.72,-0.14,1.07
18:24:37.990,35378,-0.78,-0.70,-0.13,1.05
18:24:38.003,35392,-0.78,-0.70,-0.13,1.06
18:24:38.022,35406,-0.79,-0.69,-0.12,1.06
18:24:38.029,35420,-0.78,-0.69,-0.10,1.04
18:24:38.047,35434,-0.77,-0.69,-0.10,1.04
18:24:38.058,35448,-0.77,-0.70,-0.07,1.04
18:24:38.076,35462,-0.77,-0.68,-0.05,1.03
18:24:38.086,35476,-0.77,-0.69,-0.07,1.04
18:24:38.107,35490,-0.77,-0.67,-0.05,1.02
18:24:38.112,35504,-0.76,-0.70,-0.04,1.03
18:24:38.126,35518,-0.76,-0.68,-0.04,1.03
18:24:38.142,35532,-0.75,-0.70,-0.03,1.02
18:24:38.191,35546,-0.73,-0.72,-0.04,1.03
18:24:38.192,35560,-0.72,-0.75,-0.04,1.04
18:24:38.193,35574,-0.76,-0.70,-0.02,1.03
18:24:38.197,35588,-0.77,-0.68,-0.02,1.03
18:24:38.232,35602,-0.76,-0.71,-0.05,1.04
18:24:38.233,35616,-0.75,-0.78,-0.06,1.08
18:24:38.238,35630,-0.75,-0.79,-0.06,1.09
18:24:38.274,35644,-0.76,-0.75,-0.03,1.07
18:24:38.279,35658,-0.77,-0.75,-0.03,1.08
18:24:38.279,35672,-0.79,-0.74,-0.02,1.09
18:24:38.315,35686,-0.81,-0.75,-0.02,1.10
18:24:38.316,35700,-0.82,-0.72,0.03,1.09
18:24:38.368,35714,-0.85,-0.78,-0.01,1.15
18:24:38.368,35728,-0.86,-0.77,-0.08,1.15
18:24:38.371,35742,-0.87,-0.77,-0.06,1.16
18:24:38.371,35756,-0.90,-0.78,-0.17,1.20
18:24:38.382,35770,-0.87,-0.79,-0.37,1.23
18:24:38.392,35784,-0.98,-0.71,-0.17,1.23
18:24:38.413,35798,-1.00,-0.56,-0.11,1.15
18:24:38.422,35812,-0.95,-0.56,-0.00,1.11
18:24:38.461,35826,-0.97,-0.57,0.02,1.13
18:24:38.475,35840,-1.00,-0.63,-0.06,1.18
18:24:38.476,35854,-1.04,-0.63,-0.00,1.22
18:24:38.477,35868,-1.16,-0.59,-0.03,1.30
18:24:38.496,35882,-1.37,-0.40,-0.11,1.43
18:24:38.507,35896,-1.47,-0.35,-0.21,1.52
18:24:38.525,35910,-1.13,-0.56,-0.47,1.35
18:24:38.533,35924,-0.80,-0.86,-0.50,1.28
18:24:38.552,35938,-0.49,-1.10,-0.16,1.21
18:24:38.562,35952,-0.45,-1.26,0.18,1.35
18:24:38.578,35966,-0.43,-1.32,0.39,1.44
18:24:38.618,35980,-0.40,-1.33,0.36,1.43
18:24:38.620,35994,-0.40,-1.24,0.40,1.36
18:24:38.621,36008,-0.53,-1.05,0.44,1.25
18:24:38.650,36022,-0.50,-0.93,0.45,1.15
18:24:38.651,36036,-0.30,-0.99,0.34,1.09
18:24:38.665,36050,-0.20,-1.01,0.31,1.08
18:24:38.675,36064,-0.15,-0.93,0.34,1.00
18:24:38.693,36078,-0.13,-0.83,0.41,0.93
18:24:38.702,36092,-0.09,-0.85,0.39,0.94
18:24:38.722,36106,-0.04,-0.89,0.38,0.97
18:24:38.729,36120,-0.03,-0.84,0.38,0.92
18:24:38.745,36134,-0.04,-0.76,0.38,0.86
18:24:38.759,36148,-0.09,-0.71,0.42,0.83
18:24:38.780,36162,-0.16,-0.68,0.45,0.83
18:24:38.785,36176,-0.23,-0.65,0.44,0.82
18:24:38.799,36190,-0.28,-0.61,0.47,0.82
18:24:38.819,36204,-0.31,-0.59,0.47,0.82
18:24:38.827,36218,-0.34,-0.62,0.46,0.84
18:24:38.839,36232,-0.34,-0.73,0.41,0.90
18:24:38.856,36246,-0.31,-0.89,0.33,1.00
18:24:38.870,36260,-0.27,-0.97,0.31,1.05
18:24:38.886,36274,-0.26,-0.99,0.26,1.05
18:24:38.898,36288,-0.34,-0.85,0.21,0.94
18:24:38.950,36302,-0.49,-0.65,0.13,0.82
18:24:38.951,36316,-0.62,-0.60,0.05,0.86
18:24:38.952,36330,-0.67,-0.82,0.04,1.06
18:24:38.953,36344,-0.69,-0.94,0.01,1.17
18:24:38.991,36358,-0.65,-0.89,-0.11,1.11
18:24:38.992,36372,-0.72,-0.65,-0.15,0.99
18:24:38.995,36386,-0.84,-0.46,-0.17,0.97
18:24:39.032,36400,-0.88,-0.25,-0.16,0.93
18:24:39.034,36414,-0.89,-0.11,-0.26,0.93
18:24:39.036,36428,-0.84,-0.48,-0.13,0.98
18:24:39.076,36442,-0.67,-0.55,-0.30,0.92
18:24:39.076,36456,-0.57,-0.71,-0.33,0.97
18:24:39.079,36470,-0.56,-0.79,-0.25,1.00
18:24:39.116,36484,-1.35,-0.90,-0.30,1.65
18:24:39.117,36498,-2.04,-1.19,-0.18,2.37
18:24:39.121,36512,-1.02,-0.83,0.41,1.38
18:24:39.150,36526,-0.82,-0.17,0.25,0.87
18:24:39.151,36540,-1.45,0.29,0.03,1.48
18:24:39.180,36554,-0.84,-0.74,0.09,1.12
18:24:39.182,36568,-0.51,-1.18,0.02,1.28
18:24:39.191,36582,-0.50,-1.03,-0.37,1.20
18:24:39.207,36596,-0.78,-0.77,-0.26,1.13
18:24:39.222,36610,-0.84,-0.61,-0.27,1.07
18:24:39.235,36624,-0.68,-0.55,-0.38,0.95
18:24:39.250,36638,-0.72,-0.74,-0.28,1.07
18:24:39.261,36652,-0.80,-0.83,-0.20,1.17
18:24:39.275,36666,-0.77,-0.75,-0.22,1.10
18:24:39.292,36680,-0.72,-0.79,-0.28,1.10
18:24:39.306,36694,-0.68,-0.86,-0.28,1.13
18:24:39.316,36708,-0.62,-0.92,-0.28,1.14
18:24:39.335,36722,-0.64,-0.91,-0.24,1.14
18:24:39.345,36736,-0.72,-0.86,-0.19,1.14
18:24:39.358,36750,-0.75,-0.77,-0.19,1.09
18:24:39.374,36764,-0.80,-0.71,-0.21,1.09
18:24:39.394,36778,-0.83,-0.67,-0.21,1.08
18:24:39.403,36792,-0.84,-0.64,-0.22,1.08
18:24:39.415,36806,-0.83,-0.62,-0.27,1.07
18:24:39.432,36820,-0.83,-0.58,-0.32,1.06
18:24:39.442,36834,-0.88,-0.54,-0.29,1.07
18:24:39.460,36848,-0.88,-0.57,-0.25,1.08
18:24:39.470,36862,-0.83,-0.64,-0.20,1.07
18:24:39.486,36876,-0.79,-0.73,-0.11,1.08
18:24:39.506,36890,-0.78,-0.77,-0.04,1.10
18:24:39.512,36904,-0.76,-0.79,-0.08,1.10
18:24:39.528,36918,-0.75,-0.77,-0.11,1.08
18:24:39.545,36932,-0.76,-0.76,-0.15,1.09
18:24:39.555,36946,-0.82,-0.77,-0.18,1.14
18:24:39.574,36960,-0.79,-0.76,-0.22,1.12
18:24:39.582,36974,-0.75,-0.72,-0.22,1.07
18:24:39.627,36988,-0.80,-0.75,-0.21,1.12
18:24:39.628,37002,-0.85,-0.76,-0.19,1.15
18:24:39.629,37016,-0.89,-0.73,-0.17,1.16
18:24:39.668,37030,-0.89,-0.73,-0.19,1.16
18:24:39.670,37044,-0.85,-0.75,-0.21,1.15
18:24:39.671,37058,-0.79,-0.74,-0.20,1.10
18:24:39.701,37072,-0.74,-0.75,-0.21,1.07
18:24:39.703,37086,-0.75,-0.77,-0.21,1.10
18:24:39.742,37100,-0.81,-0.76,-0.21,1.13
18:24:39.743,37114,-0.83,-0.89,-0.36,1.27
18:24:39.748,37128,-0.96,-0.88,-0.39,1.36
18:24:39.784,37142,-1.11,-0.69,-0.40,1.37
18:24:39.785,37156,-1.14,-0.52,-0.35,1.30
18:24:39.829,37170,-1.27,-0.47,-0.27,1.38
18:24:39.830,37184,-1.71,-0.40,-0.34,1.79
18:24:39.831,37198,-1.93,-0.33,-0.26,1.98
18:24:39.845,37212,-1.49,-0.53,-0.24,1.60
18:24:39.847,37226,-1.05,-0.66,-0.43,1.32
18:24:39.848,37240,-0.71,-1.06,0.03,1.28
18:24:39.867,37254,-0.57,-1.40,0.44,1.58
18:24:39.878,37268,-0.51,-1.71,0.35,1.82
18:24:39.897,37282,-0.23,-1.89,0.13,1.91
18:24:39.909,37296,0.13,-2.00,-0.03,2.01
18:24:39.926,37310,0.11,-1.18,0.17,1.20
18:24:39.936,37324,-0.21,-0.90,0.38,1.00
18:24:39.951,37338,-0.43,-0.81,0.61,1.10
18:24:39.989,37352,-0.46,-0.74,0.56,1.04
18:24:40.002,37366,-0.21,-0.83,0.45,0.97
18:24:40.003,37380,-0.04,-0.83,0.35,0.90
18:24:40.005,37394,0.13,-0.72,0.30,0.79
18:24:40.021,37408,0.12,-0.67,0.27,0.73
18:24:40.030,37422,0.17,-0.83,0.29,0.90
18:24:40.047,37436,0.17,-0.87,0.24,0.92
18:24:40.059,37450,0.20,-0.80,0.21,0.85
18:24:40.080,37464,0.12,-0.72,0.25,0.78
18:24:40.086,37478,0.04,-0.70,0.29,0.76
18:24:40.105,37492,-0.08,-0.70,0.38,0.80
18:24:40.115,37506,-0.16,-0.67,0.45,0.82
18:24:40.131,37520,-0.18,-0.65,0.52,0.85
18:24:40.143,37534,-0.22,-0.74,0.48,0.91
18:24:40.159,37548,-0.18,-0.97,0.40,1.06
18:24:40.176,37562,-0.18,-1.16,0.24,1.20
18:24:40.185,37576,-0.15,-1.17,0.08,1.18
18:24:40.206,37590,-0.34,-1.03,-0.19,1.10
18:24:40.212,37604,-0.79,-0.80,-0.02,1.12
18:24:40.226,37618,-1.04,-0.79,0.02,1.31
18:24:40.242,37632,-0.93,-0.85,-0.02,1.26
18:24:40.268,37646,-0.80,-0.63,-0.20,1.03
18:24:40.269,37660,-0.75,-0.35,-0.51,0.97
18:24:40.282,37674,-0.76,0.14,-0.21,0.80
18:24:40.326,37688,-0.65,0.07,-0.72,0.97
18:24:40.326,37702,-0.73,-0.17,-0.27,0.80
18:24:40.329,37716,-0.36,-0.29,-0.13,0.48
18:24:40.364,37730,-0.33,-0.81,0.12,0.89
18:24:40.364,37744,-0.84,-1.19,0.03,1.45
18:24:40.368,37758,-2.13,-1.39,-0.45,2.58
18:24:40.405,37772,-1.17,-1.49,-0.02,1.89
18:24:40.406,37786,-0.56,-0.38,-0.12,0.69
18:24:40.409,37800,-0.68,-0.61,-0.29,0.95
18:24:40.447,37814,-0.26,-1.10,0.37,1.19
18:24:40.448,37828,-0.24,-1.28,0.27,1.33
18:24:40.451,37842,-0.94,-0.80,-0.59,1.37
18:24:40.487,37856,-0.89,-0.60,-0.09,1.08
18:24:40.488,37870,-0.87,-0.47,-0.04,0.98
18:24:40.492,37884,-0.40,-1.16,-0.15,1.24
18:24:40.529,37898,-0.27,-1.55,-0.44,1.63
18:24:40.530,37912,-0.29,-1.23,-0.83,1.52
18:24:40.534,37926,-0.68,-0.75,-0.43,1.10
18:24:40.555,37940,-0.82,-0.73,-0.09,1.10
18:24:40.562,37954,-0.89,-0.63,-0.07,1.09
18:24:40.582,37968,-0.72,-0.76,-0.23,1.07
18:24:40.597,37982,-0.66,-0.87,-0.31,1.14
18:24:40.610,37996,-0.66,-0.83,-0.33,1.11
18:24:40.619,38010,-0.75,-0.73,-0.23,1.07
18:24:40.642,38024,-0.80,-0.68,-0.17,1.06
18:24:40.646,38038,-0.78,-0.69,-0.16,1.05
18:24:40.661,38052,-0.77,-0.70,-0.19,1.07
18:24:40.674,38066,-0.78,-0.68,-0.22,1.06
18:24:40.688,38080,-0.77,-0.70,-0.24,1.07
18:24:40.707,38094,-0.74,-0.72,-0.28,1.07
18:24:40.716,38108,-0.73,-0.73,-0.30,1.07
18:24:40.732,38122,-0.74,-0.75,-0.25,1.08
18:24:40.746,38136,-0.74,-0.78,-0.20,1.10
18:24:40.758,38150,-0.72,-0.78,-0.19,1.07
18:24:40.781,38164,-0.69,-0.80,-0.20,1.08
18:24:40.786,38178,-0.72,-0.80,-0.21,1.09
18:24:40.802,38192,-0.74,-0.80,-0.21,1.11
18:24:40.820,38206,-0.81,-0.82,-0.29,1.19
18:24:40.831,38220,-0.81,-0.82,-0.35,1.20
18:24:40.848,38234,-0.84,-0.74,-0.28,1.15
18:24:40.856,38248,-0.86,-0.73,-0.25,1.15
18:24:40.872,38262,-0.83,-0.75,-0.24,1.15
18:24:40.889,38276,-0.76,-0.78,-0.21,1.11
18:24:40.899,38290,-0.78,-0.84,-0.15,1.15
18:24:40.921,38304,-0.79,-0.87,-0.15,1.18
18:24:40.927,38318,-0.78,-0.85,-0.15,1.16
18:24:40.944,38332,-0.79,-0.80,-0.19,1.14
18:24:40.959,38346,-0.81,-0.95,-0.38,1.31
18:24:40.969,38360,-0.94,-0.98,-0.33,1.40
18:24:40.982,38374,-1.11,-0.73,-0.34,1.37
18:24:41.000,38388,-1.13,-0.59,-0.32,1.31
18:24:41.011,38402,-1.41,-0.49,-0.40,1.54
18:24:41.065,38416,-2.00,-0.32,-0.47,2.08
18:24:41.065,38430,-1.70,-0.53,-0.24,1.80
18:24:41.066,38444,-1.40,-0.54,-0.40,1.55
18:24:41.068,38458,-1.00,-0.74,-0.47,1.33
18:24:41.100,38472,-0.66,-1.23,0.09,1.40
18:24:41.100,38486,-0.46,-1.65,0.38,1.75
18:24:41.134,38500,-0.34,-2.00,0.21,2.04
18:24:41.135,38514,0.00,-2.00,-0.18,2.01
18:24:41.138,38528,0.38,-1.88,-0.19,1.93
18:24:41.174,38542,0.09,-1.15,0.49,1.26
18:24:41.176,38556,-0.10,-0.98,0.55,1.13
18:24:41.180,38570,-0.56,-0.75,0.62,1.12
18:24:41.215,38584,-0.52,-0.75,0.60,1.09
18:24:41.216,38598,-0.31,-0.81,0.45,0.97
18:24:41.220,38612,-0.09,-0.79,0.40,0.89
18:24:41.298,38626,0.09,-0.66,0.44,0.80
18:24:41.299,38640,0.08,-0.54,0.41,0.68
18:24:41.300,38654,0.11,-0.71,0.27,0.77
18:24:41.301,38668,0.20,-0.93,0.16,0.97
18:24:41.302,38682,0.33,-0.96,0.12,1.03
18:24:41.304,38696,0.17,-0.85,0.17,0.88
18:24:41.321,38710,0.04,-0.78,0.34,0.85
18:24:41.337,38724,-0.08,-0.74,0.51,0.90
18:24:41.347,38738,-0.13,-0.80,0.61,1.01
18:24:41.363,38752,-0.18,-0.85,0.48,0.99
18:24:41.383,38766,-0.18,-0.92,0.29,0.98
18:24:41.388,38780,-0.21,-0.97,0.08,1.00
18:24:41.410,38794,-0.19,-0.96,-0.09,0.99
18:24:41.419,38808,-0.36,-0.88,-0.13,0.96
18:24:41.436,38822,-0.70,-0.77,-0.08,1.04
18:24:41.446,38836,-0.75,-0.81,0.03,1.10
18:24:41.459,38850,-0.63,-0.92,-0.04,1.12
18:24:41.474,38864,-0.57,-0.72,-0.31,0.97
18:24:41.488,38878,-0.63,-0.40,-0.35,0.83
18:24:41.503,38892,-0.70,-0.27,-0.16,0.76
18:24:41.522,38906,-0.80,-0.22,-0.27,0.87
18:24:41.532,38920,-0.68,-0.26,-0.22,0.76
18:24:41.543,38934,-0.43,-0.53,-0.30,0.75
18:24:41.556,38948,-0.33,-0.69,-0.18,0.79
18:24:41.573,38962,-0.45,-1.04,-0.06,1.13
18:24:41.585,38976,-2.13,-1.12,-0.52,2.46
18:24:41.602,38990,-2.10,-1.18,-0.26,2.42
18:24:41.615,39004,-0.68,-0.59,0.31,0.95
18:24:41.632,39018,-0.63,-0.23,0.06,0.67
18:24:41.641,39032,-0.51,-0.63,-0.14,0.82
18:24:41.662,39046,-0.31,-1.28,0.12,1.32
18:24:41.672,39060,-0.20,-1.65,0.07,1.67
18:24:41.683,39074,-0.59,-1.38,-0.18,1.51
18:24:41.708,39088,-0.95,-0.61,0.17,1.14
18:24:41.709,39102,-0.99,-0.27,0.08,1.03
18:24:41.729,39116,-0.53,-0.81,-0.08,0.97
18:24:41.740,39130,-0.37,-1.44,-0.42,1.54
18:24:41.758,39144,-0.17,-1.51,-0.74,1.69
18:24:41.799,39158,-0.42,-1.06,-0.52,1.25
18:24:41.799,39172,-0.80,-0.72,-0.05,1.08
18:24:41.801,39186,-0.96,-0.57,0.03,1.11
18:24:41.841,39200,-0.72,-0.74,-0.10,1.04
18:24:41.843,39214,-0.63,-0.94,-0.29,1.17
18:24:41.843,39228,-0.66,-0.89,-0.22,1.13
18:24:41.876,39242,-0.70,-0.81,-0.16,1.09
18:24:41.876,39256,-0.73,-0.79,-0.15,1.09
18:24:41.879,39270,-0.75,-0.76,-0.13,1.07
18:24:41.907,39284,-0.77,-0.72,-0.15,1.06
18:24:41.909,39298,-0.76,-0.69,-0.22,1.05
18:24:41.948,39312,-0.75,-0.72,-0.28,1.07
18:24:41.950,39326,-0.74,-0.71,-0.30,1.07
18:24:41.951,39340,-0.76,-0.75,-0.30,1.11
18:24:41.990,39354,-0.72,-0.76,-0.30,1.09
18:24:41.991,39368,-0.67,-0.77,-0.27,1.06
18:24:41.993,39382,-0.73,-0.72,-0.20,1.04
18:24:42.006,39396,-0.76,-0.76,-0.16,1.09
18:24:42.025,39410,-0.78,-0.79,-0.19,1.13
18:24:42.032,39424,-0.73,-0.79,-0.27,1.11
18:24:42.049,39438,-0.76,-0.81,-0.33,1.16
18:24:42.060,39452,-0.79,-0.78,-0.34,1.16
18:24:42.076,39466,-0.80,-0.75,-0.26,1.13
18:24:42.091,39480,-0.84,-0.79,-0.25,1.17
18:24:42.103,39494,-0.82,-0.81,-0.29,1.19
18:24:42.125,39508,-0.77,-0.82,-0.27,1.15
18:24:42.131,39522,-0.73,-0.80,-0.25,1.11
18:24:42.147,39536,-0.73,-0.81,-0.23,1.11
18:24:42.162,39550,-0.74,-0.79,-0.22,1.11
18:24:42.181,39564,-0.75,-0.79,-0.16,1.10
18:24:42.188,39578,-0.78,-0.82,-0.17,1.14
18:24:42.200,39592,-0.77,-1.04,-0.33,1.34
18:24:42.218,39606,-1.01,-0.93,-0.24,1.39
18:24:42.238,39620,-1.13,-0.67,-0.29,1.34
18:24:42.246,39634,-1.12,-0.52,-0.28,1.26
18:24:42.258,39648,-1.34,-0.54,-0.29,1.48
18:24:42.270,39662,-1.75,-0.41,-0.32,1.82
18:24:42.290,39676,-1.86,-0.37,-0.22,1.91
18:24:42.299,39690,-1.33,-0.55,-0.35,1.49
18:24:42.316,39704,-0.82,-0.90,-0.52,1.32
18:24:42.332,39718,-0.44,-1.39,0.08,1.46
18:24:42.344,39732,-0.46,-1.82,0.26,1.89
18:24:42.361,39746,-0.39,-2.00,0.09,2.04
18:24:42.370,39760,-0.02,-2.00,-0.22,2.02
18:24:42.385,39774,0.24,-1.65,-0.02,1.67
18:24:42.398,39788,0.06,-1.16,0.52,1.28
18:24:42.435,39802,-0.28,-0.89,0.55,1.08
18:24:42.436,39816,-0.57,-0.82,0.52,1.13
18:24:42.439,39830,-0.32,-0.86,0.54,1.07
18:24:42.452,39844,-0.17,-0.88,0.32,0.95
18:24:42.514,39858,0.04,-0.83,0.30,0.89
18:24:42.515,39872,0.18,-0.73,0.32,0.82
18:24:42.517,39886,0.20,-0.67,0.38,0.79
18:24:42.518,39900,0.15,-0.67,0.19,0.71
18:24:42.558,39914,0.21,-0.88,0.10,0.91
18:24:42.559,39928,0.25,-1.03,0.10,1.06
18:24:42.600,39942,0.31,-0.91,0.16,0.97
18:24:42.601,39956,0.09,-0.80,0.25,0.84
18:24:42.602,39970,-0.05,-0.73,0.37,0.82
18:24:42.604,39984,-0.20,-0.70,0.50,0.88
18:24:42.633,39998,-0.31,-0.66,0.58,0.93
18:24:42.634,40012,-0.38,-0.73,0.52,0.97
18:24:42.634,40026,-0.37,-0.91,0.44,1.07
18:24:42.666,40040,-0.33,-1.21,0.12,1.26
18:24:42.668,40054,-0.21,-1.31,-0.12,1.34
18:24:42.704,40068,-0.31,-1.03,-0.32,1.12
18:24:42.706,40082,-0.66,-0.64,-0.21,0.94
18:24:42.707,40096,-0.81,-0.77,-0.04,1.12
18:24:42.722,40110,-0.76,-0.96,-0.23,1.24
18:24:42.740,40124,-0.67,-0.44,-0.41,0.90
18:24:42.749,40138,-0.60,0.06,-0.48,0.77
18:24:42.761,40152,-1.30,0.17,-0.46,1.39
18:24:42.781,40166,-0.75,-0.18,-0.51,0.93
18:24:42.789,40180,-0.45,-0.22,-0.47,0.68
18:24:42.802,40194,-0.31,-0.72,-0.30,0.84
18:24:42.820,40208,-0.26,-0.86,-0.11,0.90
18:24:42.831,40222,-0.73,-1.04,0.06,1.28
18:24:42.850,40236,-2.13,-1.48,-0.24,2.60
18:24:42.860,40250,-1.59,-0.54,0.76,1.84
18:24:42.878,40264,-0.43,-0.34,0.02,0.55
18:24:42.889,40278,-0.45,-0.61,-0.47,0.89
18:24:42.900,40292,-0.23,-1.12,0.51,1.25
18:24:42.915,40306,-0.16,-1.45,0.68,1.61
18:24:42.935,40320,-0.96,-0.43,0.63,1.23
18:24:42.942,40334,-0.74,-0.92,0.04,1.18
18:24:42.962,40348,-0.69,-0.48,-0.02,0.84
18:24:42.988,40362,-0.41,-0.89,-0.39,1.06
18:24:42.991,40376,-0.29,-1.44,-0.45,1.54
18:24:43.000,40390,-0.26,-1.44,-0.60,1.59
18:24:43.017,40404,-0.52,-0.87,-0.37,1.08
18:24:43.027,40418,-0.73,-0.75,-0.19,1.07
18:24:43.043,40432,-0.83,-0.77,-0.10,1.14
18:24:43.058,40446,-0.65,-0.84,-0.25,1.09
18:24:43.068,40460,-0.62,-0.90,-0.27,1.12
18:24:43.083,40474,-0.65,-0.89,-0.28,1.14
18:24:43.099,40488,-0.67,-0.84,-0.29,1.11
18:24:43.110,40502,-0.71,-0.80,-0.25,1.10
18:24:43.128,40516,-0.76,-0.75,-0.21,1.08
18:24:43.138,40530,-0.80,-0.70,-0.20,1.08
18:24:43.154,40544,-0.81,-0.67,-0.22,1.08
18:24:43.171,40558,-0.79,-0.67,-0.29,1.07
18:24:43.189,40572,-0.78,-0.66,-0.36,1.08
18:24:43.195,40586,-0.76,-0.68,-0.37,1.08
18:24:43.215,40600,-0.76,-0.70,-0.34,1.09
18:24:43.225,40614,-0.78,-0.69,-0.29,1.08
18:24:43.242,40628,-0.75,-0.71,-0.27,1.07
18:24:43.250,40642,-0.69,-0.75,-0.28,1.06
18:24:43.270,40656,-0.71,-0.75,-0.28,1.07
18:24:43.280,40670,-0.71,-0.77,-0.24,1.07
18:24:43.331,40684,-0.69,-0.80,-0.23,1.08
18:24:43.332,40698,-0.68,-0.85,-0.22,1.12
18:24:43.334,40712,-0.69,-0.88,-0.22,1.14
18:24:43.338,40726,-0.77,-0.85,-0.22,1.16
18:24:43.372,40740,-0.84,-0.84,-0.27,1.21
18:24:43.373,40754,-0.81,-0.80,-0.31,1.18
18:24:43.376,40768,-0.80,-0.79,-0.28,1.16
18:24:43.413,40782,-0.75,-0.83,-0.31,1.17
18:24:43.414,40796,-0.76,-0.87,-0.26,1.18
18:24:43.418,40810,-0.77,-0.86,-0.22,1.18
18:24:43.452,40824,-0.80,-0.82,-0.21,1.16
18:24:43.453,40838,-0.80,-0.77,-0.22,1.13
18:24:43.495,40852,-0.80,-0.73,-0.25,1.11
18:24:43.495,40866,-0.85,-0.77,-0.35,1.20
18:24:43.496,40880,-0.83,-0.98,-0.50,1.38
18:24:43.519,40894,-1.15,-0.85,-0.30,1.46
18:24:43.520,40908,-1.15,-0.65,-0.30,1.35
18:24:43.530,40922,-1.44,-0.55,-0.27,1.57
18:24:43.552,40936,-1.98,-0.38,-0.29,2.03
18:24:43.562,40950,-1.89,-0.46,-0.06,1.94
18:24:43.578,40964,-1.39,-0.50,-0.33,1.52
18:24:43.588,40978,-0.92,-0.83,-0.58,1.36
18:24:43.600,40992,-0.50,-1.36,-0.00,1.45
18:24:43.619,41006,-0.28,-1.93,0.15,1.95
18:24:43.629,41020,-0.11,-2.00,-0.09,2.01
18:24:43.643,41034,0.26,-2.00,-0.58,2.10
18:24:43.659,41048,0.45,-1.43,-0.58,1.61
18:24:43.676,41062,0.02,-0.83,0.06,0.83
18:24:43.686,41076,-0.05,-0.82,1.24,1.49
18:24:43.706,41090,-0.58,-0.53,0.54,0.96
18:24:43.720,41104,-0.43,-0.78,0.57,1.06
18:24:43.736,41118,-0.16,-0.85,0.28,0.90
18:24:43.739,41132,0.07,-0.93,0.22,0.96
18:24:43.758,41146,0.25,-0.83,0.24,0.90
18:24:43.771,41160,0.20,-0.61,0.38,0.75
18:24:43.782,41174,0.17,-0.61,0.27,0.69
18:24:43.796,41188,0.27,-0.86,0.14,0.91
18:24:43.809,41202,0.39,-1.06,0.07,1.13
18:24:43.830,41216,0.41,-1.00,0.03,1.09
18:24:43.844,41230,0.21,-0.90,0.15,0.94
18:24:43.853,41244,0.04,-0.82,0.28,0.87
18:24:43.903,41258,-0.08,-0.78,0.43,0.90
18:24:43.903,41272,-0.16,-0.74,0.50,0.91
18:24:43.904,41286,-0.24,-0.81,0.47,0.97
18:24:43.908,41300,-0.26,-0.97,0.28,1.04
18:24:43.922,41314,-0.20,-1.14,0.08,1.16
18:24:43.941,41328,-0.16,-1.23,-0.05,1.24
18:24:43.957,41342,-0.24,-1.20,0.06,1.23
18:24:43.968,41356,-0.57,-0.84,-0.24,1.04
18:24:43.978,41370,-0.78,-0.59,0.00,0.97
18:24:44.031,41384,-0.88,-0.60,0.24,1.09
18:24:44.032,41398,-1.05,-0.58,0.07,1.20
18:24:44.034,41412,-0.76,-0.20,-0.31,0.85
18:24:44.036,41426,-0.78,-0.06,-0.41,0.88
18:24:44.125,41440,-0.54,-0.07,-0.88,1.03
18:24:44.126,41454,-0.39,-0.34,-0.93,1.07
18:24:44.126,41468,-0.39,-0.56,-0.21,0.71
18:24:44.127,41482,-0.43,-0.63,-0.11,0.77
18:24:44.128,41496,-1.46,-0.77,-0.20,1.66
18:24:44.128,41510,-2.13,-1.22,0.12,2.45
18:24:44.165,41524,-1.08,-0.99,0.53,1.56
18:24:44.166,41538,-0.47,-0.45,0.02,0.65
18:24:44.167,41552,-0.53,-0.60,-0.12,0.81
18:24:44.206,41566,-0.06,-1.01,0.23,1.04
18:24:44.207,41580,0.06,-1.58,0.34,1.61
18:24:44.208,41594,-0.55,-1.24,-0.67,1.51
18:24:44.230,41608,-0.92,-1.06,0.10,1.41
18:24:44.231,41622,-1.02,-0.30,0.19,1.07
18:24:44.270,41636,-0.70,-0.49,0.03,0.86
18:24:44.271,41650,-0.45,-1.21,-0.39,1.35
18:24:44.272,41664,-0.16,-1.57,-0.75,1.75
18:24:44.290,41678,-0.42,-1.12,-0.73,1.40
18:24:44.300,41692,-0.75,-0.67,-0.17,1.02
18:24:44.317,41706,-0.94,-0.59,0.06,1.11
18:24:44.332,41720,-0.80,-0.73,-0.10,1.08
18:24:44.342,41734,-0.67,-0.90,-0.27,1.15
18:24:44.356,41748,-0.68,-0.86,-0.27,1.13
18:24:44.374,41762,-0.67,-0.81,-0.29,1.09
18:24:44.385,41776,-0.74,-0.78,-0.25,1.11
18:24:44.405,41790,-0.80,-0.72,-0.18,1.09
18:24:44.412,41804,-0.80,-0.77,-0.09,1.11
18:24:44.430,41818,-0.78,-0.66,-0.21,1.05
18:24:44.441,41832,-0.76,-0.66,-0.20,1.02
18:24:44.461,41846,-0.77,-0.71,-0.23,1.07
18:24:44.468,41860,-0.78,-0.70,-0.26,1.08
18:24:44.485,41874,-0.74,-0.74,-0.27,1.08
18:24:44.500,41888,-0.61,-0.82,-0.37,1.09
18:24:44.512,41902,-0.72,-0.85,-0.17,1.13
18:24:44.526,41916,-0.63,-0.82,0.27,1.07
18:24:44.539,41930,-0.67,-0.80,-0.06,1.05
18:24:44.556,41944,-0.71,-0.80,-0.08,1.08
18:24:44.566,41958,-0.72,-0.81,-0.12,1.09
18:24:44.585,41972,-0.76,-0.81,-0.18,1.12
18:24:44.596,41986,-0.76,-0.82,-0.27,1.15
18:24:44.611,42000,-0.79,-0.74,-0.20,1.10
18:24:44.623,42014,-0.87,-0.76,-0.12,1.16
18:24:44.643,42028,-0.85,-0.78,-0.16,1.16
18:24:44.653,42042,-0.79,-0.74,-0.15,1.09
18:24:44.670,42056,-0.73,-0.76,-0.19,1.08
18:24:44.681,42070,-0.74,-0.83,-0.18,1.12
18:24:44.693,42084,-0.78,-0.84,-0.13,1.15
18:24:44.711,42098,-0.82,-0.83,-0.16,1.18
18:24:44.764,42112,-0.76,-1.02,-0.32,1.32
18:24:44.764,42126,-0.95,-0.95,-0.22,1.36
18:24:44.766,42140,-1.07,-0.75,-0.21,1.32
18:24:44.767,42154,-1.18,-0.67,-0.17,1.36
18:24:44.799,42168,-1.65,-0.60,-0.32,1.78
18:24:44.800,42182,-1.91,-0.55,-0.25,2.00
18:24:44.805,42196,-1.54,-0.70,-0.30,1.72
18:24:44.841,42210,-1.11,-0.79,-0.63,1.50
18:24:44.842,42224,-0.84,-1.01,-0.38,1.37
18:24:44.846,42238,-0.53,-1.38,0.11,1.48
18:24:44.925,42252,-0.36,-1.67,0.23,1.73
18:24:44.926,42266,-0.16,-1.96,0.13,1.98
18:24:44.927,42280,0.29,-2.00,-0.14,2.03
18:24:44.928,42294,0.41,-1.39,-0.12,1.46
18:24:44.930,42308,0.24,-1.62,1.01,1.92
18:24:44.930,42322,-0.01,-0.77,0.53,0.94
18:24:44.966,42336,-0.46,-0.88,0.24,1.03
18:24:44.967,42350,-0.08,-1.05,0.21,1.07
18:24:44.971,42364,0.15,-1.11,0.08,1.12
18:24:45.004,42378,0.24,-0.97,0.10,1.01
18:24:45.004,42392,0.25,-0.78,0.18,0.84
18:24:45.041,42406,0.26,-0.80,0.20,0.86
18:24:45.042,42420,0.34,-0.95,0.10,1.01
18:24:45.044,42434,0.31,-0.99,0.07,1.04
18:24:45.058,42448,0.50,-1.17,0.05,1.27
18:24:45.072,42462,0.36,-1.03,0.13,1.10
18:24:45.089,42476,0.17,-0.93,0.22,0.97
18:24:45.102,42490,0.07,-0.86,0.28,0.91
18:24:45.118,42504,-0.01,-0.84,0.35,0.91
18:24:45.125,42518,-0.10,-0.87,0.39,0.96
18:24:45.142,42532,-0.17,-0.98,0.31,1.04
18:24:45.188,42546,-0.15,-1.09,0.20,1.12
18:24:45.188,42560,-0.14,-1.16,0.09,1.18
18:24:45.189,42574,-0.18,-1.14,0.12,1.16
18:24:45.199,42588,-0.33,-1.06,0.18,1.13
18:24:45.213,42602,-0.52,-1.02,0.25,1.17
18:24:45.233,42616,-0.79,-0.56,-0.07,0.97
18:24:45.238,42630,-0.79,-0.46,-0.03,0.91
18:24:45.252,42644,-0.90,-0.52,0.22,1.06
18:24:45.271,42658,-0.93,-0.64,-0.17,1.14
18:24:45.282,42672,-0.49,-0.53,-0.73,1.03
18:24:45.301,42686,-0.40,-0.29,-0.98,1.09
18:24:45.311,42700,-0.48,-0.26,-0.72,0.90
18:24:45.331,42714,-0.58,-0.33,-0.36,0.76
18:24:45.343,42728,-0.55,-0.38,-0.13,0.69
18:24:45.350,42742,-0.50,-0.44,0.11,0.68
18:24:45.367,42756,-1.40,-0.67,-0.19,1.56
18:24:45.379,42770,-2.13,-0.72,-0.42,2.28
18:24:45.393,42784,-1.13,-1.35,0.40,1.80
18:24:45.407,42798,-0.51,-0.29,0.04,0.59
18:24:45.425,42812,-0.30,-0.38,0.28,0.56
18:24:45.435,42826,-0.04,-0.85,0.60,1.04
18:24:45.456,42840,-0.13,-1.51,0.44,1.58
18:24:45.466,42854,-0.48,-1.79,0.04,1.86
18:24:45.476,42868,-1.01,-0.84,0.55,1.42
18:24:45.494,42882,-0.96,-0.32,0.67,1.21
18:24:45.509,42896,-0.91,-0.34,0.37,1.04
18:24:45.518,42910,-0.39,-1.61,-0.42,1.71
18:24:45.573,42924,0.10,-1.88,-0.72,2.02
18:24:45.574,42938,-0.03,-1.44,-1.24,1.90
18:24:45.574,42952,-0.62,-0.69,-0.20,0.95
18:24:45.575,42966,-0.89,-0.61,0.15,1.10
18:24:45.612,42980,-1.07,-0.51,0.20,1.20
18:24:45.613,42994,-0.81,-0.77,-0.05,1.12
18:24:45.617,43008,-0.61,-0.96,-0.23,1.16
18:24:45.654,43022,-0.59,-0.86,-0.30,1.09
18:24:45.655,43036,-0.74,-0.77,-0.14,1.07
18:24:45.659,43050,-0.77,-0.79,-0.11,1.11
18:24:45.695,43064,-0.78,-0.74,-0.17,1.09
18:24:45.696,43078,-0.74,-0.70,-0.16,1.03
18:24:45.700,43092,-0.74,-0.67,-0.20,1.02
18:24:45.728,43106,-0.73,-0.70,-0.20,1.03
18:24:45.730,43120,-0.78,-0.81,-0.24,1.15
18:24:45.773,43134,-0.70,-0.69,-0.19,1.00
18:24:45.776,43148,-0.72,-0.77,-0.12,1.06
18:24:45.776,43162,-0.73,-0.80,-0.10,1.09
18:24:45.789,43176,-0.66,-0.87,-0.02,1.09
18:24:45.799,43190,-0.67,-0.92,-0.06,1.14
18:24:45.821,43204,-0.71,-0.87,-0.08,1.13
18:24:45.826,43218,-0.73,-0.80,-0.11,1.09
18:24:45.841,43232,-0.73,-0.76,-0.18,1.07
18:24:45.857,43246,-0.70,-0.75,-0.29,1.07
18:24:45.868,43260,-0.73,-0.75,-0.30,1.09
18:24:45.886,43274,-0.84,-0.75,-0.20,1.15
18:24:45.895,43288,-0.88,-0.70,-0.21,1.14
18:24:45.914,43302,-0.80,-0.69,-0.24,1.08
18:24:45.929,43316,-0.72,-0.73,-0.26,1.06
18:24:45.939,43330,-0.68,-0.77,-0.25,1.06
18:24:45.952,43344,-0.73,-0.76,-0.16,1.07
18:24:45.969,43358,-0.79,-0.74,-0.09,1.09
18:24:45.981,43372,-0.76,-0.90,-0.25,1.20
18:24:45.994,43386,-0.92,-1.03,-0.23,1.40
18:24:46.015,43400,-1.13,-0.85,-0.20,1.43
18:24:46.025,43414,-1.20,-0.69,-0.22,1.40
18:24:46.042,43428,-1.44,-0.57,-0.21,1.57
18:24:46.052,43442,-1.73,-0.63,-0.10,1.84
18:24:46.065,43456,-1.58,-0.63,-0.21,1.71
18:24:46.078,43470,-0.97,-0.84,-0.60,1.42
18:24:46.096,43484,-0.49,-1.24,-0.63,1.48
18:24:46.106,43498,-0.31,-1.54,-0.18,1.59
18:24:46.120,43512,-0.24,-1.84,-0.01,1.86
18:24:46.135,43526,-0.05,-1.88,-0.22,1.89
18:24:46.155,43540,0.25,-1.75,-0.31,1.79
18:24:46.163,43554,0.37,-1.49,-0.00,1.53
18:24:46.182,43568,-0.12,-1.07,0.57,1.22
18:24:46.191,43582,-0.50,-0.80,0.46,1.04
18:24:46.207,43596,-0.53,-0.74,0.51,1.05
18:24:46.219,43610,-0.22,-0.89,0.20,0.93
18:24:46.236,43624,0.04,-0.97,0.15,0.99
18:24:46.246,43638,0.15,-1.01,0.08,1.02
18:24:46.261,43652,0.26,-0.91,0.15,0.95
18:24:46.281,43666,0.20,-0.78,0.19,0.83
18:24:46.290,43680,0.14,-0.80,0.14,0.82
18:24:46.336,43694,0.23,-0.98,0.13,1.01
18:24:46.336,43708,0.28,-1.12,0.09,1.16
18:24:46.337,43722,0.24,-0.99,0.15,1.03
18:24:46.347,43736,0.13,-0.89,0.21,0.92
18:24:46.400,43750,-0.01,-0.83,0.28,0.88
18:24:46.401,43764,-0.13,-0.81,0.42,0.92
18:24:46.402,43778,-0.26,-0.85,0.42,0.99
18:24:46.403,43792,-0.30,-0.94,0.33,1.04
18:24:46.441,43806,-0.23,-1.08,0.14,1.11
18:24:46.442,43820,-0.18,-1.16,-0.05,1.18
18:24:46.443,43834,-0.20,-1.10,0.00,1.12
18:24:46.482,43848,-0.39,-0.99,0.08,1.07
18:24:46.483,43862,-0.53,-0.96,0.22,1.12
18:24:46.484,43876,-0.77,-0.61,-0.08,0.98
18:24:46.519,43890,-0.79,-0.48,0.05,0.93
18:24:46.520,43904,-0.82,-0.66,0.09,1.05
18:24:46.526,43918,-0.71,-0.76,-0.25,1.07
18:24:46.561,43932,-0.46,-0.49,-0.66,0.94
18:24:46.562,43946,-0.50,-0.33,-0.70,0.93
18:24:46.587,43960,-0.54,-0.43,-0.75,1.02
18:24:46.588,43974,-0.60,-0.46,-0.34,0.83
18:24:46.598,43988,-0.56,-0.45,-0.17,0.74
18:24:46.611,44002,-0.50,-0.56,0.04,0.75
18:24:46.628,44016,-0.58,-0.97,0.02,1.13
18:24:46.638,44030,-2.04,-1.52,-0.35,2.56
18:24:46.654,44044,-1.86,-1.38,-0.15,2.33
18:24:46.670,44058,-0.55,-0.65,0.10,0.86
18:24:46.679,44072,-0.40,-0.45,0.13,0.61
18:24:46.697,44086,-0.21,-0.60,0.45,0.78
18:24:46.711,44100,-0.24,-1.29,0.66,1.47
18:24:46.729,44114,-0.58,-1.55,0.19,1.67
18:24:46.735,44128,-0.96,-0.90,0.43,1.39
18:24:46.756,44142,-0.81,-0.32,0.31,0.92
18:24:46.766,44156,-0.73,-0.60,0.07,0.95
18:24:46.783,44170,-0.38,-1.34,-0.29,1.42
18:24:46.799,44184,0.13,-1.77,-0.98,2.02
18:24:46.829,44198,0.10,-1.46,-1.23,1.91
18:24:46.829,44212,-0.57,-0.79,-0.27,1.01
18:24:46.835,44226,-0.90,-0.57,0.07,1.07
18:24:46.853,44240,-1.10,-0.54,0.17,1.23
18:24:46.868,44254,-0.87,-0.74,0.10,1.15
18:24:46.883,44268,-0.63,-0.92,-0.21,1.13
18:24:46.895,44282,-0.56,-0.89,-0.27,1.09
18:24:46.920,44296,-0.73,-0.79,-0.13,1.08
18:24:46.921,44310,-0.79,-0.75,-0.12,1.10
18:24:46.936,44324,-0.74,-0.73,-0.18,1.05
18:24:46.946,44338,-0.71,-0.75,-0.21,1.06
18:24:46.961,44352,-0.73,-0.75,-0.20,1.07
18:24:46.973,44366,-0.79,-0.75,-0.20,1.11
18:24:46.995,44380,-0.76,-0.62,-0.28,1.02
18:24:47.006,44394,-0.77,-0.76,-0.28,1.12
18:24:47.017,44408,-0.75,-0.77,-0.27,1.11
18:24:47.037,44422,-0.75,-0.77,-0.23,1.10
18:24:47.045,44436,-0.74,-0.76,-0.22,1.08
18:24:47.059,44450,-0.73,-0.79,-0.22,1.09
18:24:47.118,44464,-0.73,-0.79,-0.18,1.09
18:24:47.118,44478,-0.75,-0.79,-0.20,1.11
18:24:47.119,44492,-0.79,-0.79,-0.22,1.14
18:24:47.120,44506,-0.77,-0.75,-0.22,1.09
18:24:47.158,44520,-0.79,-0.75,-0.21,1.11
18:24:47.159,44534,-0.82,-0.76,-0.25,1.15
18:24:47.160,44548,-0.84,-0.72,-0.26,1.13
18:24:47.199,44562,-0.80,-0.70,-0.26,1.09
18:24:47.200,44576,-0.76,-0.72,-0.29,1.09
18:24:47.202,44590,-0.76,-0.74,-0.25,1.09
18:24:47.241,44604,-0.79,-0.75,-0.18,1.11
18:24:47.242,44618,-0.86,-0.81,-0.25,1.21
18:24:47.243,44632,-0.85,-1.04,-0.32,1.38
18:24:47.275,44646,-1.15,-0.91,-0.19,1.48
18:24:47.276,44660,-1.13,-0.75,-0.25,1.38
18:24:47.305,44674,-1.39,-0.59,-0.36,1.55
18:24:47.306,44688,-1.71,-0.47,-0.41,1.82
18:24:47.310,44702,-1.73,-0.53,-0.34,1.84
18:24:47.326,44716,-1.31,-0.82,-0.50,1.62
18:24:47.344,44730,-0.85,-0.92,-0.70,1.44
18:24:47.355,44744,-0.41,-1.38,-0.31,1.47
18:24:47.368,44758,-0.34,-1.65,0.10,1.69
18:24:47.386,44772,-0.16,-1.90,0.06,1.91
18:24:47.400,44786,0.03,-1.96,-0.34,1.99
18:24:47.411,44800,0.42,-1.73,-0.38,1.82
18:24:47.424,44814,0.42,-1.34,-0.07,1.41
18:24:47.445,44828,0.13,-1.21,0.87,1.50
18:24:47.450,44842,-0.14,-0.82,0.35,0.91
18:24:47.466,44856,-0.26,-0.79,0.43,0.94
18:24:47.486,44870,-0.04,-0.87,0.12,0.88
18:24:47.494,44884,0.12,-0.90,0.14,0.92
18:24:47.514,44898,0.21,-0.92,0.09,0.95
18:24:47.523,44912,0.25,-0.82,0.13,0.86
18:24:47.541,44926,0.16,-0.69,0.24,0.75
18:24:47.548,44940,0.08,-0.64,0.17,0.67
18:24:47.562,44954,0.18,-0.75,0.18,0.80
18:24:47.581,44968,0.32,-1.01,0.15,1.07
18:24:47.592,44982,0.37,-1.10,0.04,1.16
18:24:47.635,44996,0.28,-1.04,0.07,1.08
18:24:47.636,45010,0.13,-0.99,0.14,1.01
18:24:47.637,45024,-0.08,-0.93,0.31,0.98
18:24:47.651,45038,-0.28,-0.86,0.43,1.00
18:24:47.661,45052,-0.41,-0.86,0.40,1.04
18:24:47.680,45066,-0.44,-0.95,0.27,1.08
18:24:47.688,45080,-0.42,-1.09,0.07,1.17
18:24:47.707,45094,-0.39,-1.16,-0.06,1.22
18:24:47.717,45108,-0.47,-1.14,-0.04,1.23
18:24:47.731,45122,-0.50,-0.87,0.23,1.03
18:24:47.747,45136,-0.80,-0.66,-0.21,1.06
18:24:47.800,45150,-0.70,-0.66,-0.05,0.96
18:24:47.800,45164,-0.69,-0.98,-0.26,1.23
18:24:47.802,45178,-0.52,-0.66,-0.55,1.01
18:24:47.803,45192,-0.51,-0.22,-0.62,0.84
18:24:47.841,45206,-0.71,-0.02,-0.41,0.82
18:24:47.842,45220,-0.70,-0.25,-0.18,0.76
18:24:47.844,45234,-0.62,-0.37,-0.13,0.73
18:24:47.882,45248,-0.54,-0.49,0.06,0.73
18:24:47.884,45262,-1.40,-0.94,-0.10,1.69
18:24:47.885,45276,-1.96,-1.71,-0.13,2.60
18:24:47.924,45290,-0.77,-1.01,0.29,1.30
18:24:47.925,45304,-0.61,-0.47,0.29,0.82
18:24:47.926,45318,-0.49,-0.57,0.42,0.87
18:24:47.965,45332,-0.37,-1.09,0.43,1.23
18:24:47.966,45346,-0.37,-1.53,0.33,1.61
18:24:47.968,45360,-0.70,-1.22,0.04,1.41
18:24:47.983,45374,-0.85,-0.59,0.22,1.05
18:24:48.005,45388,-0.84,-0.44,0.08,0.95
18:24:48.010,45402,-0.55,-1.02,-0.18,1.17
18:24:48.030,45416,-0.30,-1.38,-0.58,1.52
18:24:48.038,45430,-0.34,-1.20,-0.70,1.43
18:24:48.056,45444,-0.65,-0.79,-0.26,1.06
18:24:48.066,45458,-0.81,-0.72,-0.13,1.09
18:24:48.082,45472,-0.80,-0.76,-0.17,1.11
18:24:48.108,45486,-0.69,-0.83,-0.23,1.11
18:24:48.110,45500,-0.68,-0.85,-0.20,1.10
18:24:48.128,45514,-0.66,-0.85,-0.21,1.10
18:24:48.136,45528,-0.68,-0.85,-0.22,1.11
18:24:48.157,45542,-0.71,-0.81,-0.21,1.10
18:24:48.164,45556,-0.77,-0.74,-0.11,1.08
18:24:48.180,45570,-0.82,-0.70,-0.04,1.08
18:24:48.195,45584,-0.72,-0.76,-0.09,1.05
18:24:48.212,45598,-0.71,-0.74,-0.20,1.05
18:24:48.222,45612,-0.82,-0.82,-0.13,1.17
18:24:48.241,45626,-0.69,-0.78,-0.23,1.07
18:24:48.249,45640,-0.62,-0.94,0.08,1.13
18:24:48.262,45654,-0.67,-0.83,-0.13,1.07
18:24:48.278,45668,-0.66,-0.85,-0.10,1.08
18:24:48.291,45682,-0.66,-0.89,-0.10,1.11
18:24:48.308,45696,-0.69,-0.87,-0.10,1.11
18:24:48.321,45710,-0.73,-0.84,-0.13,1.12
18:24:48.332,45724,-0.77,-0.82,-0.17,1.14
18:24:48.346,45738,-0.76,-0.79,-0.22,1.12
18:24:48.367,45752,-0.76,-0.73,-0.22,1.07
18:24:48.375,45766,-0.79,-0.76,-0.22,1.12
18:24:48.393,45780,-0.84,-0.74,-0.22,1.15
18:24:48.407,45794,-0.84,-0.74,-0.22,1.14
18:24:48.421,45808,-0.80,-0.72,-0.25,1.11
18:24:48.430,45822,-0.74,-0.74,-0.26,1.08
18:24:48.449,45836,-0.70,-0.71,-0.29,1.04
18:24:48.463,45850,-0.70,-0.70,-0.26,1.02
18:24:48.475,45864,-0.70,-0.73,-0.19,1.03
18:24:48.491,45878,-0.73,-0.73,-0.09,1.04
18:24:48.500,45892,-0.77,-0.82,-0.13,1.13
18:24:48.521,45906,-0.74,-1.09,-0.21,1.33
18:24:48.530,45920,-1.07,-0.88,-0.04,1.38
18:24:48.581,45934,-1.09,-0.66,-0.11,1.27
18:24:48.582,45948,-1.18,-0.39,-0.04,1.24
18:24:48.583,45962,-1.54,-0.51,-0.09,1.63
18:24:48.584,45976,-1.77,-0.62,-0.25,1.89
18:24:48.622,45990,-1.43,-0.66,-0.32,1.61
18:24:48.623,46004,-0.97,-0.81,-0.61,1.40
18:24:48.626,46018,-0.51,-1.17,-0.43,1.34
18:24:48.663,46032,-0.30,-1.50,-0.01,1.53
18:24:48.664,46046,-0.26,-1.76,0.08,1.79
18:24:48.668,46060,-0.19,-1.87,-0.03,1.88
18:24:48.705,46074,-0.01,-1.74,-0.33,1.77
18:24:48.705,46088,0.26,-1.55,-0.05,1.57
18:24:48.709,46102,0.37,-1.13,0.74,1.40
18:24:48.746,46116,-0.08,-0.83,0.47,0.96
18:24:48.747,46130,-0.46,-0.73,0.45,0.97
18:24:48.751,46144,-0.41,-0.80,0.45,1.01
18:24:48.771,46158,-0.13,-0.91,0.25,0.96
18:24:48.780,46172,0.06,-0.98,0.27,1.01
18:24:48.795,46186,0.15,-0.81,0.30,0.88
18:24:48.810,46200,0.09,-0.66,0.25,0.71
18:24:48.824,46214,0.18,-0.73,0.26,0.79
18:24:48.836,46228,0.21,-0.91,0.13,0.94
18:24:48.857,46242,0.31,-1.08,0.11,1.13
18:24:48.868,46256,0.29,-1.02,0.08,1.06
18:24:48.885,46270,0.18,-0.91,0.16,0.94
18:24:48.895,46284,0.06,-0.85,0.25,0.89
18:24:48.938,46298,-0.06,-0.79,0.41,0.89
18:24:48.939,46312,-0.18,-0.79,0.50,0.95
18:24:48.939,46326,-0.24,-0.87,0.43,1.01
18:24:48.951,46340,-0.21,-1.01,0.22,1.06
18:24:48.964,46354,-0.16,-1.19,-0.03,1.21
18:24:48.977,46368,-0.06,-1.26,-0.08,1.26
18:24:48.990,46382,-0.18,-1.15,0.04,1.17
18:24:49.004,46396,-0.52,-0.81,0.02,0.96
18:24:49.018,46410,-0.76,-0.58,0.09,0.96
18:24:49.038,46424,-0.95,-0.46,0.24,1.09
18:24:49.077,46438,-0.95,-0.56,0.24,1.13
18:24:49.079,46452,-0.85,-0.61,-0.26,1.08
18:24:49.080,46466,-0.56,-0.56,-0.58,0.98
18:24:49.088,46480,-0.56,-0.38,-0.66,0.94
18:24:49.106,46494,-0.64,-0.42,-0.59,0.97
18:24:49.118,46508,-0.63,-0.52,-0.51,0.96
18:24:49.137,46522,-0.59,-0.48,-0.29,0.81
18:24:49.146,46536,-0.57,-0.52,-0.07,0.77
18:24:49.160,46550,-0.58,-0.72,0.07,0.93
18:24:49.180,46564,-0.78,-0.97,-0.12,1.25
18:24:49.185,46578,-1.88,-1.31,-0.21,2.30
18:24:49.222,46592,-1.90,-1.24,-0.11,2.27
18:24:49.224,46606,-0.52,-0.51,0.12,0.74
18:24:49.228,46620,-0.49,-0.12,0.05,0.51
18:24:49.257,46634,-0.49,-0.09,0.50,0.71
18:24:49.259,46648,-0.86,-1.06,0.46,1.44
18:24:49.350,46662,-0.75,-1.48,0.29,1.68
18:24:49.350,46676,-0.88,-0.71,-0.04,1.13
18:24:49.352,46690,-0.79,-0.28,0.09,0.85
18:24:49.353,46704,-0.72,-0.61,-0.04,0.94
18:24:49.354,46718,-0.55,-1.14,-0.09,1.27
18:24:49.354,46732,-0.29,-1.46,-0.52,1.57
18:24:49.356,46746,-0.09,-1.35,-0.78,1.57
18:24:49.390,46760,-0.46,-1.06,-0.35,1.21
18:24:49.390,46774,-0.77,-0.65,0.09,1.01
18:24:49.396,46788,-1.00,-0.54,0.19,1.15
18:24:49.431,46802,-0.92,-0.69,0.20,1.16
18:24:49.432,46816,-0.64,-0.96,-0.17,1.16
18:24:49.458,46830,-0.54,-0.96,-0.28,1.14
18:24:49.459,46844,-0.60,-0.90,-0.36,1.14
18:24:49.466,46858,-0.67,-0.87,-0.32,1.14
18:24:49.487,46872,-0.69,-0.86,-0.25,1.13
18:24:49.495,46886,-0.70,-0.70,-0.28,1.03
18:24:49.514,46900,-0.77,-0.72,-0.21,1.07
18:24:49.524,46914,-0.78,-0.73,-0.17,1.08
18:24:49.536,46928,-0.79,-0.74,-0.15,1.09
18:24:49.553,46942,-0.77,-0.74,-0.16,1.08
18:24:49.563,46956,-0.74,-0.81,-0.16,1.11
18:24:49.582,46970,-0.75,-0.83,-0.12,1.12
18:24:49.597,46984,-0.75,-0.83,-0.13,1.13
18:24:49.607,46998,-0.76,-0.83,-0.15,1.13
18:24:49.625,47012,-0.77,-0.80,-0.18,1.12
18:24:49.641,47026,-0.82,-0.75,-0.20,1.13
18:24:49.648,47040,-0.80,-0.71,-0.25,1.09
18:24:49.667,47054,-0.78,-0.71,-0.20,1.07
18:24:49.676,47068,-0.79,-0.73,-0.17,1.09
18:24:49.695,47082,-0.80,-0.77,-0.21,1.13
18:24:49.705,47096,-0.81,-0.76,-0.24,1.13
18:24:49.722,47110,-0.80,-0.73,-0.27,1.12
18:24:49.732,47124,-0.77,-0.71,-0.31,1.09
18:24:49.749,47138,-0.76,-0.65,-0.30,1.04
18:24:49.767,47152,-0.73,-0.61,-0.31,1.01
18:24:49.776,47166,-0.73,-0.63,-0.26,1.00
18:24:49.794,47180,-0.76,-0.74,-0.24,1.09
18:24:49.807,47194,-0.88,-1.00,-0.23,1.35
18:24:49.816,47208,-1.18,-0.86,-0.12,1.47
18:24:49.837,47222,-1.18,-0.70,-0.11,1.38
18:24:49.846,47236,-1.31,-0.55,-0.24,1.44
18:24:49.858,47250,-1.50,-0.52,-0.20,1.60
18:24:49.880,47264,-1.59,-0.58,-0.20,1.70
18:24:49.890,47278,-1.15,-0.72,-0.44,1.43
18:24:49.901,47292,-0.70,-0.97,-0.61,1.34
18:24:49.919,47306,-0.35,-1.37,-0.21,1.43
18:24:49.932,47320,-0.18,-1.77,0.03,1.78
18:24:49.943,47334,0.05,-2.00,-0.09,2.01
18:24:49.961,47348,0.27,-1.93,-0.45,2.00
18:24:49.972,47362,0.41,-1.51,-0.06,1.56
18:24:50.025,47376,0.20,-1.23,0.74,1.45
18:24:50.026,47390,-0.06,-0.97,0.69,1.20
18:24:50.027,47404,-0.47,-0.70,0.54,1.00
18:24:50.028,47418,-0.32,-0.72,0.53,0.95
18:24:50.057,47432,-0.02,-0.87,0.28,0.91
18:24:50.058,47446,0.14,-0.87,0.29,0.93
18:24:50.098,47460,0.08,-0.84,0.23,0.87
18:24:50.099,47474,0.10,-0.88,0.24,0.91
18:24:50.100,47488,0.17,-0.86,0.21,0.90
18:24:50.140,47502,0.21,-0.81,0.06,0.84
18:24:50.141,47516,0.38,-1.04,0.09,1.11
18:24:50.143,47530,0.34,-1.08,0.08,1.14
18:24:50.181,47544,0.18,-0.93,0.22,0.98
18:24:50.182,47558,-0.00,-0.81,0.34,0.88
18:24:50.184,47572,-0.12,-0.73,0.49,0.88
18:24:50.235,47586,-0.25,-0.72,0.52,0.92
18:24:50.235,47600,-0.30,-0.78,0.46,0.96
18:24:50.237,47614,-0.27,-0.96,0.30,1.04
18:24:50.327,47628,-0.19,-1.10,0.11,1.12
18:24:50.327,47642,-0.14,-1.16,-0.01,1.16
18:24:50.328,47656,-0.21,-1.08,0.06,1.10
18:24:50.330,47670,-0.41,-1.00,0.17,1.10
18:24:50.331,47684,-0.58,-0.97,0.31,1.17
18:24:50.333,47698,-0.79,-0.64,-0.06,1.02
18:24:50.333,47712,-0.74,-0.42,0.09,0.86
18:24:50.336,47726,-0.76,-0.62,0.15,0.99
18:24:50.376,47740,-0.70,-1.05,-0.22,1.28
18:24:50.390,47754,-0.38,-0.97,-0.59,1.20
18:24:50.391,47768,-0.43,-0.40,-0.69,0.91
18:24:50.392,47782,-0.77,-0.24,-0.41,0.90
18:24:50.406,47796,-0.89,-0.21,-0.13,0.93
18:24:50.421,47810,-0.84,-0.20,0.00,0.86
18:24:50.438,47824,-0.73,-0.29,-0.03,0.79
18:24:50.446,47838,-0.60,-0.64,-0.06,0.88
18:24:50.462,47852,-1.57,-1.08,-0.33,1.93
18:24:50.480,47866,-1.87,-1.20,-0.33,2.24
18:24:50.490,47880,-0.96,-0.65,0.27,1.19
18:24:50.509,47894,-1.02,-0.18,0.19,1.06
18:24:50.518,47908,-0.86,-0.37,0.26,0.97
18:24:50.530,47922,-0.58,-0.90,0.17,1.09
18:24:50.544,47936,-0.39,-1.46,0.17,1.52
18:24:50.561,47950,-0.47,-1.28,-0.31,1.40
18:24:50.575,47964,-0.74,-0.65,-0.01,0.98
18:24:50.588,47978,-0.80,-0.58,0.01,0.99
18:24:50.600,47992,-0.63,-0.97,-0.32,1.20
18:24:50.616,48006,-0.48,-1.10,-0.48,1.29
18:24:50.629,48020,-0.64,-0.91,-0.49,1.21
18:24:50.669,48034,-0.84,-0.67,-0.19,1.09
18:24:50.670,48048,-0.87,-0.60,-0.13,1.07
18:24:50.672,48062,-0.80,-0.67,-0.18,1.06
18:24:50.683,48076,-0.67,-0.87,-0.28,1.13
18:24:50.701,48090,-0.58,-1.01,-0.34,1.21
18:24:50.712,48104,-0.65,-0.94,-0.27,1.17
18:24:50.732,48118,-0.76,-0.79,-0.10,1.10
18:24:50.782,48132,-0.78,-0.73,0.01,1.06
18:24:50.784,48146,-0.73,-0.94,-0.22,1.21
18:24:50.784,48160,-0.82,-0.62,-0.04,1.03
18:24:50.786,48174,-0.68,-0.85,-0.13,1.10
18:24:50.823,48188,-0.73,-0.80,-0.21,1.10
18:24:50.824,48202,-0.72,-0.76,-0.19,1.06
18:24:50.826,48216,-0.75,-0.78,-0.19,1.10
18:24:50.864,48230,-0.79,-0.74,-0.17,1.09
18:24:50.866,48244,-0.82,-0.70,-0.18,1.10
18:24:50.867,48258,-0.80,-0.70,-0.20,1.08
18:24:50.906,48272,-0.78,-0.71,-0.19,1.08
18:24:50.907,48286,-0.77,-0.73,-0.22,1.08
18:24:50.908,48300,-0.76,-0.78,-0.28,1.12
18:24:50.947,48314,-0.81,-0.71,-0.22,1.10
18:24:50.948,48328,-0.80,-0.69,-0.21,1.07
18:24:50.950,48342,-0.78,-0.70,-0.21,1.07
18:24:50.973,48356,-0.79,-0.71,-0.20,1.07
18:24:50.978,48370,-0.78,-0.71,-0.17,1.07
18:24:50.996,48384,-0.77,-0.73,-0.18,1.08
18:24:51.007,48398,-0.74,-0.75,-0.16,1.07
18:24:51.024,48412,-0.69,-0.81,-0.17,1.08
18:24:51.039,48426,-0.63,-0.92,-0.14,1.12
18:24:51.050,48440,-0.68,-0.82,-0.06,1.07
18:24:51.063,48454,-0.75,-0.71,-0.02,1.03
18:24:51.080,48468,-0.71,-0.80,-0.09,1.08
18:24:51.090,48482,-0.67,-0.82,-0.17,1.08
18:24:51.105,48496,-0.67,-0.80,-0.17,1.06
18:24:51.123,48510,-0.72,-0.80,-0.19,1.10
18:24:51.132,48524,-0.76,-0.76,-0.17,1.09
18:24:51.146,48538,-0.79,-0.70,-0.13,1.06
18:24:51.160,48552,-0.83,-0.65,-0.12,1.06
18:24:51.176,48566,-0.82,-0.65,-0.14,1.06
18:24:51.193,48580,-0.79,-0.73,-0.22,1.09
18:24:51.202,48594,-0.76,-0.74,-0.20,1.07
18:24:51.221,48608,-0.77,-0.76,-0.17,1.10
18:24:51.230,48622,-0.77,-0.74,-0.14,1.07
18:24:51.244,48636,-0.77,-0.74,-0.15,1.08
18:24:51.260,48650,-0.76,-0.74,-0.17,1.07
18:24:51.278,48664,-0.76,-0.74,-0.17,1.07
18:24:51.286,48678,-0.77,-0.73,-0.16,1.07
18:24:51.306,48692,-0.75,-0.74,-0.17,1.07
18:24:51.315,48706,-0.73,-0.76,-0.16,1.07
18:24:51.335,48720,-0.73,-0.76,-0.15,1.07
18:24:51.344,48734,-0.73,-0.77,-0.14,1.07
18:24:51.359,48748,-0.73,-0.76,-0.13,1.06
18:24:51.375,48762,-0.74,-0.76,-0.12,1.06
18:24:51.385,48776,-0.73,-0.76,-0.13,1.06
18:24:51.404,48790,-0.73,-0.76,-0.14,1.07
18:24:51.412,48804,-0.72,-0.77,-0.15,1.07
18:24:51.426,48818,-0.74,-0.77,-0.14,1.07
18:24:51.440,48832,-0.73,-0.77,-0.12,1.07
18:24:51.480,48846,-0.73,-0.76,-0.13,1.07
18:24:51.482,48860,-0.73,-0.77,-0.13,1.07
18:24:51.483,48874,-0.73,-0.77,-0.14,1.07
