time,timestamps,ax,ay,az,mag
18:27:06.622,15305,-0.86,-0.61,-0.02,1.06
18:27:06.630,15315,-0.86,-0.61,-0.01,1.05
18:27:06.653,15325,-0.86,-0.59,-0.01,1.05
18:27:06.655,15335,-0.87,-0.58,-0.01,1.05
18:27:06.660,15345,-0.87,-0.58,-0.02,1.05
18:27:06.671,15355,-0.87,-0.58,-0.02,1.04
18:27:06.680,15365,-0.87,-0.58,-0.02,1.05
18:27:06.694,15375,-0.87,-0.58,-0.03,1.05
18:27:06.700,15385,-0.87,-0.58,-0.03,1.05
18:27:06.711,15395,-0.88,-0.58,-0.03,1.05
18:27:06.720,15405,-0.88,-0.59,-0.01,1.05
18:27:06.731,15415,-0.87,-0.59,-0.01,1.05
18:27:06.746,15425,-0.86,-0.59,-0.01,1.05
18:27:06.750,15435,-0.87,-0.59,-0.00,1.05
18:27:06.760,15445,-0.86,-0.59,-0.00,1.04
18:27:06.770,15455,-0.86,-0.59,-0.00,1.05
18:27:06.780,15465,-0.86,-0.60,-0.00,1.04
18:27:06.790,15475,-0.86,-0.60,-0.01,1.05
18:27:06.802,15485,-0.86,-0.59,-0.01,1.05
18:27:06.813,15495,-0.86,-0.59,-0.01,1.05
18:27:06.823,15505,-0.87,-0.58,0.00,1.05
18:27:06.830,15515,-0.86,-0.58,0.01,1.04
18:27:06.840,15525,-0.86,-0.59,-0.00,1.04
18:27:06.904,15535,-0.85,-0.59,-0.01,1.04
18:27:06.905,15545,-0.86,-0.59,-0.01,1.04
18:27:06.906,15555,-0.86,-0.60,-0.00,1.05
18:27:06.907,15565,-0.87,-0.60,0.01,1.05
18:27:06.945,15575,-0.87,-0.60,0.01,1.05
18:27:06.945,15585,-0.86,-0.60,0.00,1.05
18:27:06.945,15595,-0.86,-0.59,-0.01,1.04
18:27:06.946,15605,-0.85,-0.59,0.00,1.04
18:27:06.948,15615,-0.86,-0.58,0.00,1.04
18:27:06.948,15625,-0.86,-0.58,-0.01,1.04
18:27:06.985,15635,-0.86,-0.59,-0.01,1.04
18:27:06.987,15645,-0.87,-0.59,-0.00,1.05
18:27:06.987,15655,-0.88,-0.60,-0.01,1.06
18:27:06.988,15665,-0.87,-0.60,-0.01,1.06
18:27:06.991,15675,-0.87,-0.58,-0.02,1.05
18:27:07.026,15685,-0.88,-0.60,-0.03,1.06
18:27:07.027,15695,-0.88,-0.60,-0.02,1.07
18:27:07.028,15705,-0.87,-0.59,-0.04,1.05
18:27:07.031,15715,-0.87,-0.58,-0.03,1.05
18:27:07.064,15725,-0.88,-0.56,-0.03,1.04
18:27:07.065,15735,-0.88,-0.57,-0.02,1.05
18:27:07.067,15745,-0.87,-0.59,-0.03,1.05
18:27:07.090,15755,-0.87,-0.58,-0.04,1.05
18:27:07.090,15765,-0.87,-0.58,-0.02,1.05
18:27:07.092,15775,-0.88,-0.58,-0.02,1.06
18:27:07.102,15785,-0.88,-0.58,-0.02,1.05
18:27:07.111,15795,-0.88,-0.57,-0.03,1.04
18:27:07.122,15805,-0.88,-0.57,-0.03,1.05
18:27:07.131,15815,-0.90,-0.56,-0.05,1.06
18:27:07.142,15825,-0.91,-0.54,-0.06,1.06
18:27:07.151,15835,-0.92,-0.51,-0.11,1.06
18:27:07.160,15845,-0.93,-0.47,-0.15,1.06
18:27:07.170,15855,-0.96,-0.44,-0.19,1.07
18:27:07.186,15865,-0.99,-0.40,-0.21,1.09
18:27:07.192,15875,-1.02,-0.34,-0.24,1.10
18:27:07.200,15885,-1.03,-0.31,-0.27,1.11
18:27:07.213,15895,-1.03,-0.30,-0.31,1.12
18:27:07.225,15905,-1.06,-0.27,-0.30,1.13
18:27:07.230,15915,-1.06,-0.26,-0.30,1.13
18:27:07.240,15925,-1.06,-0.25,-0.29,1.12
18:27:07.251,15935,-1.07,-0.26,-0.28,1.13
18:27:07.262,15945,-1.05,-0.27,-0.23,1.11
18:27:07.275,15955,-1.05,-0.31,-0.16,1.10
18:27:07.280,15965,-1.05,-0.43,-0.05,1.13
18:27:07.291,15975,-1.04,-0.54,-0.01,1.17
18:27:07.300,15985,-1.06,-0.65,0.04,1.25
18:27:07.310,15995,-1.08,-0.72,0.08,1.30
18:27:07.323,16005,-1.08,-0.77,0.11,1.33
18:27:07.330,16015,-1.06,-0.78,0.12,1.32
18:27:07.344,16025,-1.01,-0.78,0.13,1.28
18:27:07.350,16035,-0.96,-0.78,0.16,1.25
18:27:07.361,16045,-0.94,-0.79,0.16,1.24
18:27:07.371,16055,-0.90,-0.83,0.10,1.23
18:27:07.384,16065,-0.83,-0.87,0.07,1.21
18:27:07.395,16075,-0.82,-0.86,0.05,1.19
18:27:07.401,16085,-0.80,-0.80,0.05,1.14
18:27:07.414,16095,-0.78,-0.73,0.08,1.08
18:27:07.421,16105,-0.77,-0.72,0.11,1.06
18:27:07.439,16115,-0.79,-0.61,0.15,1.01
18:27:07.440,16125,-0.80,-0.64,0.13,1.04
18:27:07.456,16135,-0.81,-0.66,0.10,1.05
18:27:07.460,16145,-0.81,-0.67,0.06,1.05
18:27:07.475,16155,-0.78,-0.67,0.06,1.03
18:27:07.480,16165,-0.76,-0.67,0.04,1.02
18:27:07.498,16175,-0.78,-0.67,0.04,1.03
18:27:07.501,16185,-0.79,-0.66,0.04,1.03
18:27:07.519,16195,-0.80,-0.67,0.04,1.04
18:27:07.520,16205,-0.81,-0.69,0.02,1.06
18:27:07.532,16215,-0.81,-0.69,0.01,1.06
18:27:07.542,16225,-0.82,-0.69,0.02,1.07
18:27:07.551,16235,-0.83,-0.67,0.01,1.07
18:27:07.562,16245,-0.84,-0.65,0.00,1.06
18:27:07.571,16255,-0.84,-0.64,0.01,1.06
18:27:07.581,16265,-0.86,-0.61,0.02,1.05
18:27:07.598,16275,-0.86,-0.58,0.02,1.04
18:27:07.603,16285,-0.81,-0.56,0.02,0.99
18:27:07.632,16295,-0.82,-0.55,0.01,0.98
18:27:07.640,16305,-0.81,-0.54,-0.01,0.97
18:27:07.640,16315,-0.82,-0.55,-0.01,0.98
18:27:07.675,16325,-0.84,-0.55,-0.04,1.01
18:27:07.676,16335,-0.85,-0.53,-0.02,1.01
18:27:07.678,16345,-0.87,-0.50,-0.02,1.00
18:27:07.678,16355,-0.89,-0.45,-0.02,1.00
18:27:07.714,16365,-0.90,-0.39,-0.03,0.98
18:27:07.717,16375,-0.91,-0.35,-0.04,0.98
18:27:07.717,16385,-0.92,-0.33,-0.07,0.98
18:27:07.717,16395,-0.91,-0.32,-0.11,0.97
18:27:07.755,16405,-0.87,-0.32,-0.18,0.95
18:27:07.758,16415,-0.84,-0.30,-0.22,0.92
18:27:07.758,16425,-0.86,-0.27,-0.26,0.94
18:27:07.760,16435,-0.93,-0.23,-0.24,0.99
18:27:07.766,16445,-0.98,-0.23,-0.21,1.02
18:27:07.795,16455,-0.98,-0.24,-0.21,1.03
18:27:07.796,16465,-0.95,-0.24,-0.22,1.01
18:27:07.798,16475,-0.91,-0.28,-0.26,0.99
18:27:07.802,16485,-0.88,-0.34,-0.29,0.99
18:27:07.834,16495,-0.87,-0.39,-0.28,0.99
18:27:07.834,16505,-0.86,-0.41,-0.27,0.98
18:27:07.836,16515,-0.82,-0.45,-0.26,0.97
18:27:07.866,16525,-0.81,-0.44,-0.21,0.95
18:27:07.867,16535,-0.79,-0.50,-0.18,0.95
18:27:07.871,16545,-0.76,-0.52,-0.14,0.93
18:27:07.871,16555,-0.70,-0.56,-0.13,0.91
18:27:07.882,16565,-0.63,-0.64,-0.14,0.91
18:27:07.893,16575,-0.62,-0.73,-0.12,0.96
18:27:07.901,16585,-0.84,-0.77,-0.10,1.14
18:27:07.910,16595,-1.83,-0.67,-0.18,1.96
18:27:07.925,16605,-2.13,-0.48,0.27,2.19
18:27:07.936,16615,-1.58,-0.40,0.28,1.65
18:27:07.945,16625,-0.95,-0.21,0.05,0.98
18:27:07.951,16635,-0.78,-0.08,-0.07,0.78
18:27:07.961,16645,-0.82,-0.21,-0.11,0.85
18:27:07.978,16655,-0.96,-0.56,-0.16,1.12
18:27:07.981,16665,-0.96,-0.86,0.09,1.29
18:27:07.991,16675,-0.78,-0.96,0.31,1.27
18:27:08.002,16685,-0.76,-0.81,0.12,1.11
18:27:08.019,16695,-0.83,-0.63,-0.06,1.04
18:27:08.020,16705,-0.91,-0.55,0.08,1.07
18:27:08.038,16715,-0.97,-0.50,0.10,1.09
18:27:08.040,16725,-0.89,-0.51,0.10,1.03
18:27:08.051,16735,-0.79,-0.65,-0.07,1.03
18:27:08.062,16745,-0.76,-0.76,-0.23,1.10
18:27:08.072,16755,-0.78,-0.84,-0.27,1.17
18:27:08.081,16765,-0.80,-0.81,-0.21,1.16
18:27:08.098,16775,-0.85,-0.66,-0.11,1.08
18:27:08.100,16785,-0.91,-0.55,-0.09,1.07
18:27:08.112,16795,-0.95,-0.45,-0.09,1.05
18:27:08.123,16805,-0.94,-0.46,-0.12,1.05
18:27:08.131,16815,-0.92,-0.58,-0.18,1.10
18:27:08.145,16825,-0.85,-0.78,-0.33,1.20
18:27:08.151,16835,-0.76,-0.83,-0.35,1.17
18:27:08.161,16845,-0.76,-0.84,-0.30,1.17
18:27:08.172,16855,-0.80,-0.76,-0.20,1.12
18:27:08.184,16865,-0.84,-0.67,-0.08,1.08
18:27:08.202,16875,-0.85,-0.63,-0.03,1.06
18:27:08.204,16885,-0.85,-0.62,-0.04,1.05
18:27:08.210,16895,-0.86,-0.62,-0.05,1.06
18:27:08.221,16905,-0.84,-0.64,-0.08,1.06
18:27:08.234,16915,-0.84,-0.64,-0.10,1.06
18:27:08.240,16925,-0.83,-0.63,-0.12,1.05
18:27:08.253,16935,-0.83,-0.62,-0.10,1.04
18:27:08.264,16945,-0.85,-0.61,-0.10,1.05
18:27:08.274,16955,-0.85,-0.60,-0.09,1.04
18:27:08.283,16965,-0.84,-0.61,-0.09,1.04
18:27:08.290,16975,-0.83,-0.62,-0.09,1.03
18:27:08.300,16985,-0.82,-0.63,-0.09,1.04
18:27:08.315,16995,-0.81,-0.66,-0.07,1.05
18:27:08.321,17005,-0.82,-0.62,-0.06,1.03
18:27:08.331,17015,-0.81,-0.61,-0.05,1.02
18:27:08.383,17025,-0.80,-0.63,-0.07,1.03
18:27:08.384,17035,-0.80,-0.67,-0.07,1.05
18:27:08.385,17045,-0.82,-0.69,-0.06,1.07
18:27:08.386,17055,-0.84,-0.70,-0.03,1.10
18:27:08.387,17065,-0.83,-0.68,-0.03,1.07
18:27:08.426,17075,-0.81,-0.63,-0.04,1.03
18:27:08.426,17085,-0.82,-0.60,-0.08,1.01
18:27:08.427,17095,-0.83,-0.62,-0.08,1.04
18:27:08.430,17105,-0.85,-0.63,-0.09,1.06
18:27:08.432,17115,-0.86,-0.63,-0.10,1.07
18:27:08.466,17125,-0.86,-0.69,-0.09,1.10
18:27:08.466,17135,-0.87,-0.74,-0.04,1.15
18:27:08.470,17145,-0.90,-0.76,-0.03,1.18
18:27:08.475,17155,-0.87,-0.74,-0.07,1.15
18:27:08.499,17165,-0.87,-0.72,-0.05,1.13
18:27:08.502,17175,-0.86,-0.72,-0.05,1.13
18:27:08.502,17185,-0.88,-0.73,-0.09,1.15
18:27:08.541,17195,-0.87,-0.71,-0.10,1.13
18:27:08.544,17205,-0.86,-0.69,-0.07,1.11
18:27:08.544,17215,-0.88,-0.69,-0.07,1.12
18:27:08.544,17225,-0.90,-0.71,-0.10,1.15
18:27:08.566,17235,-0.91,-0.71,-0.09,1.16
18:27:08.566,17245,-0.92,-0.68,-0.09,1.15
18:27:08.572,17255,-0.92,-0.64,-0.10,1.12
18:27:08.588,17265,-0.91,-0.63,-0.12,1.12
18:27:08.592,17275,-0.91,-0.67,-0.15,1.14
18:27:08.601,17285,-0.92,-0.79,-0.22,1.24
18:27:08.617,17295,-1.01,-0.73,-0.15,1.26
18:27:08.621,17305,-1.13,-0.55,-0.01,1.26
18:27:08.636,17315,-1.16,-0.38,0.06,1.22
18:27:08.641,17325,-1.15,-0.23,-0.01,1.17
18:27:08.650,17335,-1.15,-0.24,0.01,1.18
18:27:08.663,17345,-1.18,-0.34,-0.08,1.23
18:27:08.675,17355,-1.27,-0.46,-0.14,1.36
18:27:08.681,17365,-1.58,-0.42,-0.26,1.66
18:27:08.691,17375,-1.64,-0.28,-0.22,1.68
18:27:08.701,17385,-1.61,-0.34,-0.23,1.66
18:27:08.711,17395,-1.37,-0.48,-0.32,1.49
18:27:08.722,17405,-1.13,-0.60,-0.51,1.38
18:27:08.734,17415,-0.91,-0.79,-0.36,1.26
18:27:08.742,17425,-0.69,-0.99,0.25,1.24
18:27:08.751,17435,-0.63,-1.20,0.47,1.43
18:27:08.761,17445,-0.67,-1.47,0.51,1.69
18:27:08.772,17455,-0.65,-1.73,0.49,1.91
18:27:08.783,17465,-0.48,-2.00,0.27,2.08
18:27:08.792,17475,-0.28,-2.00,0.10,2.03
18:27:08.803,17485,-0.26,-1.41,0.13,1.44
18:27:08.815,17495,-0.24,-1.12,0.46,1.24
18:27:08.823,17505,-0.48,-0.80,0.63,1.12
18:27:08.832,17515,-0.62,-0.67,0.72,1.16
18:27:08.841,17525,-0.67,-0.51,0.78,1.15
18:27:08.850,17535,-0.56,-0.41,0.86,1.11
18:27:08.860,17545,-0.36,-0.42,0.81,0.98
18:27:08.872,17555,-0.26,-0.53,0.57,0.82
18:27:08.881,17565,-0.13,-0.51,0.53,0.75
18:27:08.910,17575,0.02,-0.49,0.53,0.72
18:27:08.911,17585,0.09,-0.50,0.48,0.70
18:27:08.912,17595,0.00,-0.62,0.42,0.75
18:27:08.920,17605,-0.10,-0.76,0.35,0.84
18:27:08.935,17615,-0.05,-0.90,0.29,0.95
18:27:08.940,17625,0.05,-1.03,0.27,1.07
18:27:08.970,17635,0.07,-1.03,0.27,1.06
18:27:08.971,17645,0.04,-0.98,0.22,1.00
18:27:08.972,17655,-0.02,-0.85,0.31,0.90
18:27:08.981,17665,-0.06,-0.77,0.41,0.87
18:27:08.990,17675,-0.16,-0.70,0.51,0.88
18:27:09.005,17685,-0.25,-0.66,0.67,0.98
18:27:09.010,17695,-0.31,-0.63,0.78,1.05
18:27:09.022,17705,-0.34,-0.64,0.79,1.07
18:27:09.030,17715,-0.36,-0.69,0.69,1.04
18:27:09.040,17725,-0.37,-0.79,0.44,0.97
18:27:09.054,17735,-0.34,-0.96,0.23,1.05
18:27:09.061,17745,-0.28,-1.09,0.06,1.13
18:27:09.237,17755,-0.26,-1.08,-0.10,1.11
18:27:09.238,17765,-0.46,-0.90,0.02,1.01
18:27:09.239,17775,-0.60,-0.80,0.15,1.01
18:27:09.241,17785,-0.74,-0.77,0.25,1.09
18:27:09.242,17795,-0.73,-0.78,0.27,1.10
18:27:09.242,17805,-0.73,-0.79,0.30,1.12
18:27:09.274,17815,-0.78,-0.60,0.14,1.00
18:27:09.275,17825,-0.83,-0.33,0.08,0.90
18:27:09.279,17835,-0.83,-0.23,0.01,0.86
18:27:09.282,17845,-0.76,-0.01,-0.23,0.79
18:27:09.282,17855,-0.72,0.04,-0.13,0.73
18:27:09.282,17865,-0.55,-0.72,0.12,0.91
18:27:09.282,17875,-0.56,-0.13,-0.50,0.76
18:27:09.282,17885,-0.61,-0.41,-0.56,0.93
18:27:09.282,17895,-0.53,-0.70,-0.39,0.97
18:27:09.282,17905,-0.61,-0.63,-0.14,0.89
18:27:09.282,17915,-1.18,-0.64,-0.21,1.35
18:27:09.282,17925,-2.13,-0.60,-0.16,2.22
18:27:09.282,17935,-1.96,-0.51,0.44,2.07
18:27:09.282,17945,-1.12,-0.52,0.63,1.39
18:27:09.282,17955,-0.86,-0.14,0.45,0.98
18:27:09.284,17965,-0.69,-0.31,0.18,0.78
18:27:09.290,17975,-0.59,-0.51,0.07,0.78
18:27:09.302,17985,-0.62,-0.60,0.20,0.89
18:27:09.310,17995,-0.42,-1.08,0.09,1.16
18:27:09.324,18005,0.85,-0.67,-0.33,1.14
18:27:09.330,18015,-0.57,-1.67,0.36,1.80
18:27:09.344,18025,-0.56,-1.60,0.12,1.70
18:27:09.350,18035,-0.91,-0.68,0.30,1.18
18:27:09.362,18045,-0.90,-0.33,0.36,1.03
18:27:09.378,18055,-0.98,-0.20,0.13,1.01
18:27:09.380,18065,-0.80,-0.52,0.21,0.98
18:27:09.390,18075,-0.68,-0.99,0.01,1.20
18:27:09.402,18085,-0.61,-1.28,-0.23,1.44
18:27:09.412,18095,-0.55,-1.30,-0.42,1.47
18:27:09.423,18105,-0.66,-1.00,-0.45,1.28
18:27:09.431,18115,-0.74,-0.75,-0.08,1.06
18:27:09.446,18125,-0.87,-0.65,0.06,1.09
18:27:09.450,18135,-0.89,-0.57,0.13,1.07
18:27:09.498,18145,-0.87,-0.58,0.07,1.05
18:27:09.499,18155,-0.83,-0.63,0.02,1.05
18:27:09.501,18165,-0.81,-0.70,-0.02,1.07
18:27:09.501,18175,-0.80,-0.75,-0.06,1.10
18:27:09.502,18185,-0.80,-0.74,-0.10,1.10
18:27:09.513,18195,-0.81,-0.73,-0.14,1.10
18:27:09.523,18205,-0.83,-0.70,-0.15,1.10
18:27:09.534,18215,-0.84,-0.66,-0.13,1.07
18:27:09.541,18225,-0.87,-0.59,-0.14,1.06
18:27:09.550,18235,-0.88,-0.52,-0.15,1.04
18:27:09.560,18245,-0.87,-0.50,-0.14,1.01
18:27:09.575,18255,-0.88,-0.52,-0.13,1.03
18:27:09.580,18265,-0.89,-0.52,-0.11,1.03
18:27:09.590,18275,-0.88,-0.52,-0.11,1.03
18:27:09.600,18285,-0.86,-0.55,-0.12,1.03
18:27:09.611,18295,-0.84,-0.59,-0.10,1.03
18:27:09.623,18305,-0.82,-0.66,-0.06,1.05
18:27:09.633,18315,-0.81,-0.70,-0.04,1.07
18:27:09.644,18325,-0.81,-0.68,-0.00,1.06
18:27:09.653,18335,-0.81,-0.69,-0.02,1.06
18:27:09.663,18345,-0.79,-0.72,-0.05,1.06
18:27:09.671,18355,-0.80,-0.74,-0.06,1.09
18:27:09.689,18365,-0.82,-0.77,-0.08,1.12
18:27:09.690,18375,-0.88,-0.72,-0.07,1.14
18:27:09.707,18385,-0.95,-0.67,-0.09,1.16
18:27:09.710,18395,-1.01,-0.65,-0.13,1.21
18:27:09.724,18405,-1.03,-0.66,-0.20,1.24
18:27:09.734,18415,-0.97,-0.58,-0.24,1.16
18:27:09.743,18425,-0.95,-0.53,-0.18,1.10
18:27:09.753,18435,-0.97,-0.56,-0.14,1.13
18:27:09.760,18445,-0.97,-0.62,-0.14,1.16
18:27:09.770,18455,-0.96,-0.65,-0.15,1.17
18:27:09.780,18465,-0.94,-0.66,-0.10,1.15
18:27:09.790,18475,-0.93,-0.67,-0.07,1.15
18:27:09.800,18485,-0.91,-0.70,-0.11,1.16
18:27:09.810,18495,-0.89,-0.71,-0.11,1.15
18:27:09.820,18505,-0.87,-0.70,-0.11,1.12
18:27:09.874,18515,-0.87,-0.67,-0.10,1.11
18:27:09.875,18525,-0.88,-0.65,-0.06,1.10
18:27:09.876,18535,-0.92,-0.61,-0.05,1.10
18:27:09.876,18545,-0.99,-0.63,-0.11,1.18
18:27:09.877,18555,-1.05,-0.82,-0.26,1.35
18:27:09.914,18565,-1.19,-0.73,-0.18,1.41
18:27:09.914,18575,-1.33,-0.55,-0.12,1.44
18:27:09.918,18585,-1.38,-0.38,-0.17,1.44
18:27:09.918,18595,-1.59,-0.21,-0.24,1.62
18:27:09.955,18605,-1.81,0.00,-0.28,1.83
18:27:09.955,18615,-1.84,-0.04,-0.28,1.86
18:27:09.956,18625,-1.50,-0.24,-0.20,1.54
18:27:09.958,18635,-1.22,-0.49,-0.41,1.38
18:27:09.960,18645,-1.00,-0.75,-0.48,1.34
18:27:09.995,18655,-0.76,-1.06,0.07,1.31
18:27:09.997,18665,-0.68,-1.26,0.47,1.51
18:27:09.998,18675,-0.62,-1.68,0.48,1.86
18:27:10.000,18685,-0.58,-2.00,0.33,2.11
18:27:10.037,18695,-0.38,-2.00,0.10,2.04
18:27:10.039,18705,-0.05,-2.00,0.01,2.01
18:27:10.040,18715,0.01,-1.69,-0.38,1.73
18:27:10.041,18725,-0.21,-1.07,-0.01,1.09
18:27:10.052,18735,0.08,-0.88,0.74,1.15
18:27:10.060,18745,-0.39,-0.45,1.00,1.17
18:27:10.071,18755,-0.69,-0.44,0.92,1.24
18:27:10.084,18765,-0.54,-0.36,0.86,1.07
18:27:10.090,18775,-0.33,-0.49,0.73,0.94
18:27:10.102,18785,-0.27,-0.68,0.50,0.89
18:27:10.112,18795,-0.05,-0.73,0.26,0.77
18:27:10.124,18805,0.08,-0.70,0.25,0.75
18:27:10.135,18815,0.18,-0.67,0.25,0.74
18:27:10.144,18825,0.15,-0.59,0.32,0.69
18:27:10.151,18835,-0.10,-0.70,0.35,0.79
18:27:10.161,18845,0.05,-0.78,0.31,0.84
18:27:10.190,18855,0.07,-0.87,0.30,0.92
18:27:10.190,18865,0.12,-0.91,0.33,0.97
18:27:10.191,18875,0.13,-0.87,0.35,0.94
18:27:10.202,18885,0.06,-0.81,0.36,0.89
18:27:10.210,18895,-0.03,-0.75,0.40,0.85
18:27:10.224,18905,-0.15,-0.71,0.46,0.86
18:27:10.230,18915,-0.22,-0.67,0.54,0.89
18:27:10.269,18925,-0.31,-0.64,0.61,0.93
18:27:10.270,18935,-0.36,-0.61,0.70,1.00
18:27:10.271,18945,-0.40,-0.62,0.65,0.98
18:27:10.272,18955,-0.40,-0.81,0.55,1.06
18:27:10.281,18965,-0.39,-1.01,0.47,1.18
18:27:10.298,18975,-0.40,-1.18,0.26,1.27
18:27:10.300,18985,-0.35,-1.25,0.14,1.31
18:27:10.313,18995,-0.34,-1.27,0.15,1.32
18:27:10.322,19005,-0.40,-1.03,0.16,1.12
18:27:10.330,19015,-0.60,-0.79,-0.00,0.99
18:27:10.340,19025,-0.63,-0.44,0.00,0.77
18:27:10.350,19035,-0.64,-0.59,0.06,0.87
18:27:10.368,19045,-0.62,-1.09,-0.03,1.25
18:27:10.370,19055,-0.85,-1.11,-0.26,1.42
18:27:10.382,19065,-0.72,-0.87,-0.42,1.21
18:27:10.390,19075,-0.63,-0.12,-0.40,0.75
18:27:10.401,19085,-0.67,0.12,-0.38,0.78
18:27:10.411,19095,-0.75,0.17,-0.58,0.96
18:27:10.426,19105,-0.79,0.12,-0.44,0.91
18:27:10.430,19115,-0.50,-0.18,-0.13,0.54
18:27:10.440,19125,-0.32,-0.26,-0.12,0.43
18:27:10.452,19135,-0.36,-0.52,0.02,0.63
18:27:10.461,19145,-1.06,-0.62,0.01,1.23
18:27:10.471,19155,-2.13,-1.26,-0.21,2.48
18:27:10.482,19165,-2.04,-1.39,0.02,2.46
18:27:10.494,19175,-0.86,-1.16,0.12,1.45
18:27:10.500,19185,-0.43,-0.31,0.44,0.69
18:27:10.543,19195,-0.36,-0.36,0.27,0.58
18:27:10.544,19205,-0.40,-0.63,0.17,0.77
18:27:10.545,19215,-0.43,-0.88,0.55,1.12
18:27:10.546,19225,-0.44,-1.20,0.47,1.36
18:27:10.584,19235,-0.57,-1.43,0.25,1.56
18:27:10.585,19245,-0.91,-1.33,0.01,1.61
18:27:10.586,19255,-0.89,-1.14,0.13,1.45
18:27:10.588,19265,-0.90,-0.63,0.14,1.10
18:27:10.590,19275,-0.80,-0.57,0.00,0.98
18:27:10.627,19285,-0.61,-0.60,0.02,0.86
18:27:10.627,19295,-0.55,-0.88,-0.12,1.05
18:27:10.629,19305,-0.56,-1.22,-0.34,1.38
18:27:10.630,19315,-0.94,-1.42,-0.53,1.79
18:27:10.667,19325,-0.54,-1.24,-0.55,1.46
18:27:10.668,19335,-0.69,-0.90,-0.42,1.21
18:27:10.671,19345,-0.78,-0.65,-0.04,1.01
18:27:10.671,19355,-0.76,-0.63,0.12,0.99
18:27:10.708,19365,-0.97,-0.45,0.23,1.09
18:27:10.709,19375,-0.97,-0.43,0.12,1.07
18:27:10.711,19385,-0.84,-0.64,-0.07,1.06
18:27:10.711,19395,-0.77,-0.80,-0.22,1.13
18:27:10.736,19405,-0.73,-0.87,-0.27,1.17
18:27:10.738,19415,-0.77,-0.78,-0.25,1.13
18:27:10.741,19425,-0.83,-0.66,-0.16,1.07
18:27:10.753,19435,-0.86,-0.55,-0.17,1.04
18:27:10.763,19445,-0.89,-0.54,-0.08,1.05
18:27:10.777,19455,-0.84,-0.65,-0.15,1.07
18:27:10.781,19465,-0.85,-0.57,-0.15,1.04
18:27:10.795,19475,-0.82,-0.58,-0.18,1.02
18:27:10.803,19485,-0.80,-0.66,-0.20,1.06
18:27:10.812,19495,-0.79,-0.66,-0.21,1.05
18:27:10.823,19505,-0.83,-0.69,-0.26,1.11
18:27:10.833,19515,-0.84,-0.66,-0.16,1.08
18:27:10.840,19525,-0.84,-0.67,-0.13,1.08
18:27:10.855,19535,-0.82,-0.69,-0.12,1.08
18:27:10.864,19545,-0.81,-0.74,-0.10,1.10
18:27:10.873,19555,-0.76,-0.82,-0.10,1.12
18:27:10.884,19565,-0.75,-0.77,-0.04,1.08
18:27:10.894,19575,-0.85,-0.79,-0.06,1.16
18:27:10.900,19585,-0.85,-0.79,-0.14,1.18
18:27:10.918,19595,-0.86,-0.73,-0.19,1.14
18:27:10.920,19605,-0.85,-0.70,-0.22,1.12
18:27:10.930,19615,-0.87,-0.71,-0.22,1.15
18:27:10.941,19625,-0.92,-0.69,-0.24,1.18
18:27:10.950,19635,-0.95,-0.66,-0.22,1.18
18:27:10.968,19645,-0.95,-0.63,-0.17,1.16
18:27:10.971,19655,-0.92,-0.63,-0.15,1.12
18:27:10.980,19665,-0.89,-0.67,-0.15,1.12
18:27:10.997,19675,-0.87,-0.70,-0.15,1.13
18:27:11.000,19685,-0.85,-0.72,-0.16,1.12
18:27:11.011,19695,-0.84,-0.69,-0.15,1.10
18:27:11.022,19705,-0.82,-0.67,-0.14,1.07
18:27:11.040,19715,-0.83,-0.63,-0.09,1.04
18:27:11.041,19725,-0.85,-0.62,-0.09,1.06
18:27:11.054,19735,-0.89,-0.65,-0.13,1.11
18:27:11.060,19745,-0.90,-0.83,-0.29,1.26
18:27:11.077,19755,-1.06,-0.86,-0.23,1.38
18:27:11.080,19765,-1.24,-0.69,-0.10,1.42
18:27:11.094,19775,-1.27,-0.58,-0.13,1.40
18:27:11.104,19785,-1.35,-0.47,-0.10,1.43
18:27:11.110,19795,-1.58,-0.33,-0.10,1.61
18:27:11.121,19805,-1.73,-0.21,-0.16,1.75
18:27:11.130,19815,-1.58,-0.28,-0.08,1.60
18:27:11.140,19825,-1.25,-0.48,-0.07,1.34
18:27:11.153,19835,-0.98,-0.61,-0.38,1.22
18:27:11.162,19845,-0.78,-0.88,-0.43,1.26
18:27:11.171,19855,-0.58,-1.25,0.10,1.38
18:27:11.180,19865,-0.51,-1.50,0.38,1.63
18:27:11.195,19875,-0.52,-1.82,0.34,1.92
18:27:11.201,19885,-0.43,-2.00,0.16,2.06
18:27:11.210,19895,-0.27,-2.00,-0.19,2.03
18:27:11.222,19905,-0.00,-2.00,-0.40,2.04
18:27:11.239,19915,0.19,-1.66,-0.01,1.67
18:27:11.240,19925,0.22,-1.03,-0.01,1.06
18:27:11.250,19935,0.07,-0.94,0.47,1.05
18:27:11.265,19945,-0.50,-0.69,0.69,1.10
18:27:11.271,19955,-0.67,-0.50,0.92,1.24
18:27:11.281,19965,-0.72,-0.25,0.85,1.14
18:27:11.321,19975,-0.48,-0.43,0.78,1.01
18:27:11.322,19985,-0.34,-0.54,0.57,0.85
18:27:11.323,19995,-0.18,-0.64,0.45,0.80
18:27:11.324,20005,0.03,-0.77,0.43,0.88
18:27:11.362,20015,0.12,-0.72,0.26,0.77
18:27:11.363,20025,0.07,-0.68,0.26,0.73
18:27:11.364,20035,0.04,-0.69,0.24,0.73
18:27:11.365,20045,0.08,-0.78,0.24,0.82
18:27:11.403,20055,0.07,-0.91,0.23,0.95
18:27:11.406,20065,0.08,-0.97,0.26,1.00
18:27:11.406,20075,0.07,-0.88,0.28,0.93
18:27:11.408,20085,0.00,-0.78,0.32,0.84
18:27:11.444,20095,-0.09,-0.71,0.35,0.80
18:27:11.447,20105,-0.18,-0.68,0.43,0.83
18:27:11.447,20115,-0.27,-0.64,0.54,0.88
18:27:11.448,20125,-0.33,-0.60,0.65,0.94
18:27:11.450,20135,-0.35,-0.60,0.66,0.96
18:27:11.486,20145,-0.39,-0.65,0.61,0.98
18:27:11.488,20155,-0.37,-0.80,0.51,1.01
18:27:11.489,20165,-0.32,-0.97,0.38,1.09
18:27:11.490,20175,-0.25,-1.12,0.24,1.18
18:27:11.528,20185,-0.18,-1.27,0.10,1.29
18:27:11.528,20195,-0.17,-1.21,0.06,1.22
18:27:11.530,20205,-0.31,-1.05,-0.03,1.10
18:27:11.531,20215,-0.56,-0.76,0.07,0.95
18:27:11.545,20225,-0.67,-0.58,0.10,0.89
18:27:11.574,20235,-0.85,-0.53,0.18,1.02
18:27:11.576,20245,-0.84,-0.66,0.28,1.10
18:27:11.580,20255,-0.74,-0.98,0.07,1.22
18:27:11.581,20265,-0.79,-0.99,-0.29,1.30
18:27:11.590,20275,-0.63,-0.64,-0.24,0.93
18:27:11.604,20285,-0.72,-0.26,-0.34,0.83
18:27:11.614,20295,-0.75,-0.07,-0.47,0.89
18:27:11.620,20305,-0.86,0.08,-0.44,0.97
18:27:11.631,20315,-0.85,0.03,-0.26,0.88
18:27:11.643,20325,-0.72,-0.07,-0.41,0.83
18:27:11.653,20335,-0.60,-0.42,-0.50,0.89
18:27:11.661,20345,-0.52,-0.62,-0.43,0.92
18:27:11.675,20355,-0.46,-0.65,-0.23,0.83
18:27:11.680,20365,-0.68,-0.69,-0.11,0.97
18:27:11.690,20375,-1.77,-0.72,-0.39,1.95
18:27:11.706,20385,-2.13,-1.02,-0.33,2.38
18:27:11.710,20395,-1.78,-0.95,0.21,2.03
18:27:11.720,20405,-0.89,-0.63,0.25,1.12
18:27:11.731,20415,-0.60,0.14,0.53,0.81
18:27:11.740,20425,-0.49,-0.50,-0.01,0.70
18:27:11.750,20435,-0.54,-0.67,0.11,0.87
18:27:11.764,20445,-0.31,-0.94,0.43,1.08
18:27:11.773,20455,-0.26,-1.36,0.36,1.43
18:27:11.782,20465,-0.88,-1.77,-0.21,1.99
18:27:11.799,20475,-0.64,-1.58,0.27,1.73
18:27:11.800,20485,-0.82,-1.16,0.16,1.43
18:27:11.817,20495,-0.83,-0.62,0.29,1.08
18:27:11.820,20505,-0.88,-0.41,0.15,0.99
18:27:11.831,20515,-0.82,-0.39,-0.02,0.91
18:27:11.840,20525,-0.67,-0.74,-0.06,1.01
18:27:11.851,20535,-0.62,-1.06,-0.19,1.24
18:27:11.866,20545,-0.58,-1.23,-0.36,1.40
18:27:11.870,20555,-0.58,-1.15,-0.51,1.39
18:27:11.880,20565,-0.66,-0.94,-0.47,1.24
18:27:11.890,20575,-0.76,-0.69,-0.24,1.06
18:27:11.903,20585,-0.79,-0.67,-0.19,1.05
18:27:11.916,20595,-0.83,-0.72,-0.08,1.10
18:27:11.920,20605,-0.79,-0.77,-0.16,1.12
18:27:11.975,20615,-0.77,-0.82,-0.20,1.14
18:27:11.976,20625,-0.76,-0.81,-0.25,1.14
18:27:11.976,20635,-0.75,-0.75,-0.19,1.08
18:27:11.977,20645,-0.78,-0.68,-0.13,1.04
18:27:11.979,20655,-0.85,-0.69,-0.23,1.12
18:27:11.981,20665,-0.88,-0.66,-0.22,1.12
18:27:12.016,20675,-0.83,-0.60,-0.06,1.02
18:27:12.016,20685,-0.85,-0.61,-0.11,1.05
18:27:12.017,20695,-0.82,-0.56,-0.20,1.02
18:27:12.021,20705,-0.83,-0.58,-0.19,1.03
18:27:12.049,20715,-0.83,-0.59,-0.20,1.03
18:27:12.050,20725,-0.82,-0.60,-0.22,1.04
18:27:12.051,20735,-0.81,-0.65,-0.24,1.06
18:27:12.089,20745,-0.80,-0.66,-0.22,1.06
18:27:12.124,20755,-0.77,-0.70,-0.20,1.06
18:27:12.125,20765,-0.78,-0.71,-0.16,1.06
18:27:12.128,20775,-0.75,-0.73,-0.12,1.06
18:27:12.129,20785,-0.76,-0.74,-0.08,1.07
18:27:12.131,20795,-0.76,-0.77,-0.05,1.09
18:27:12.131,20805,-0.75,-0.73,-0.04,1.05
18:27:12.162,20815,-0.72,-0.77,0.03,1.06
18:27:12.165,20825,-0.75,-0.74,-0.07,1.06
18:27:12.166,20835,-0.74,-0.75,-0.12,1.06
18:27:12.166,20845,-0.77,-0.78,-0.16,1.11
18:27:12.170,20855,-0.82,-0.79,-0.19,1.16
18:27:12.180,20865,-0.87,-0.80,-0.20,1.20
18:27:12.190,20875,-0.90,-0.72,-0.22,1.17
18:27:12.202,20885,-0.89,-0.63,-0.17,1.10
18:27:12.219,20895,-0.89,-0.63,-0.16,1.10
18:27:12.220,20905,-0.86,-0.69,-0.16,1.11
18:27:12.236,20915,-0.79,-0.78,-0.19,1.12
18:27:12.241,20925,-0.75,-0.82,-0.18,1.13
18:27:12.258,20935,-0.75,-0.82,-0.13,1.12
18:27:12.260,20945,-0.79,-0.81,-0.10,1.14
18:27:12.270,20955,-0.83,-0.78,-0.08,1.14
18:27:12.280,20965,-0.84,-0.73,-0.06,1.12
18:27:12.290,20975,-0.82,-0.70,-0.03,1.08
18:27:12.300,20985,-0.80,-0.67,0.03,1.04
18:27:12.311,20995,-0.78,-0.72,-0.03,1.06
18:27:12.321,21005,-0.81,-0.79,-0.09,1.13
18:27:12.331,21015,-0.86,-1.01,-0.18,1.33
18:27:12.340,21025,-1.06,-0.84,-0.12,1.36
18:27:12.351,21035,-1.11,-0.70,-0.07,1.32
18:27:12.360,21045,-1.29,-0.39,0.03,1.35
18:27:12.370,21055,-1.16,-0.49,-0.14,1.27
18:27:12.386,21065,-1.35,-0.41,-0.23,1.43
18:27:12.390,21075,-1.57,-0.33,-0.06,1.61
18:27:12.400,21085,-1.73,-0.33,0.04,1.77
18:27:12.411,21095,-1.60,-0.38,-0.06,1.65
18:27:12.420,21105,-1.33,-0.68,-0.29,1.52
18:27:12.437,21115,-1.00,-0.78,-0.42,1.33
18:27:12.440,21125,-0.70,-0.98,-0.29,1.24
18:27:12.452,21135,-0.74,-1.34,0.05,1.53
18:27:12.469,21145,-0.49,-1.61,0.31,1.71
18:27:12.471,21155,-0.50,-1.86,0.19,1.93
18:27:12.484,21165,-0.39,-2.00,-0.07,2.04
18:27:12.490,21175,-0.22,-2.00,-0.38,2.05
18:27:12.500,21185,-0.03,-1.81,-0.42,1.86
18:27:12.511,21195,0.03,-1.47,0.02,1.47
18:27:12.520,21205,-0.06,-1.05,0.54,1.18
18:27:12.538,21215,-0.14,-0.96,0.74,1.22
18:27:12.541,21225,-0.42,-0.79,0.76,1.17
18:27:12.550,21235,-0.51,-0.71,0.82,1.20
18:27:12.566,21245,-0.53,-0.49,0.84,1.11
18:27:12.570,21255,-0.32,-0.55,0.63,0.89
18:27:12.584,21265,-0.15,-0.64,0.45,0.79
18:27:12.590,21275,-0.05,-0.68,0.39,0.79
18:27:12.600,21285,0.00,-0.65,0.35,0.74
18:27:12.611,21295,-0.07,-0.60,0.26,0.66
18:27:12.623,21305,-0.10,-0.65,0.27,0.71
18:27:12.631,21315,-0.11,-0.77,0.32,0.84
18:27:12.642,21325,-0.08,-0.87,0.29,0.92
18:27:12.659,21335,0.04,-0.98,0.22,1.00
18:27:12.661,21345,0.17,-1.05,0.22,1.09
18:27:12.672,21355,0.16,-1.00,0.17,1.03
18:27:12.682,21365,0.07,-0.88,0.22,0.91
18:27:12.692,21375,-0.03,-0.76,0.30,0.82
18:27:12.703,21385,-0.13,-0.71,0.46,0.86
18:27:12.713,21395,-0.23,-0.65,0.62,0.93
18:27:12.724,21405,-0.28,-0.62,0.73,1.00
18:27:12.750,21415,-0.42,-0.60,0.68,1.00
18:27:12.751,21425,-0.45,-0.56,0.62,0.95
18:27:12.751,21435,-0.42,-0.66,0.53,0.94
18:27:12.788,21445,-0.39,-0.95,0.36,1.09
18:27:12.790,21455,-0.31,-1.18,0.25,1.25
18:27:12.791,21465,-0.19,-1.35,0.11,1.37
18:27:12.792,21475,-0.15,-1.32,-0.08,1.33
18:27:12.821,21485,-0.28,-1.07,-0.22,1.13
18:27:12.823,21495,-0.45,-0.76,0.04,0.88
18:27:12.824,21505,-0.66,-0.60,0.11,0.90
18:27:12.855,21515,-0.76,-0.60,0.23,1.00
18:27:12.856,21525,-0.74,-0.70,0.32,1.06
18:27:12.858,21535,-0.73,-0.78,0.19,1.09
18:27:12.974,21545,-0.72,-0.78,-0.09,1.06
18:27:12.974,21555,-0.66,-0.52,-0.17,0.86
18:27:12.975,21565,-0.62,-0.27,-0.21,0.71
18:27:12.976,21575,-0.67,-0.08,-0.31,0.74
18:27:12.978,21585,-0.70,-0.22,-0.39,0.83
18:27:12.987,21595,-0.73,-0.06,-0.39,0.83
18:27:12.988,21605,-0.74,-0.27,-0.28,0.84
18:27:12.990,21615,-0.54,-0.46,-0.37,0.80
18:27:12.993,21625,-0.42,-0.57,-0.31,0.77
18:27:12.993,21635,-0.43,-0.69,-0.22,0.84
18:27:12.993,21645,-0.60,-0.81,0.02,1.01
18:27:12.993,21655,-2.03,-0.77,-0.44,2.22
18:27:12.993,21665,-2.13,-0.97,-0.16,2.34
18:27:12.993,21675,-1.80,-0.80,0.16,1.97
18:27:13.000,21685,-0.70,-0.40,0.75,1.10
18:27:13.011,21695,-0.65,-0.11,0.27,0.71
18:27:13.020,21705,-0.63,-0.28,0.06,0.70
18:27:13.034,21715,-0.59,-0.47,0.39,0.85
18:27:13.043,21725,-0.42,-0.81,0.45,1.02
18:27:13.053,21735,-0.40,-1.35,0.54,1.51
18:27:13.060,21745,-0.86,-1.10,0.26,1.42
18:27:13.075,21755,-0.56,-1.61,0.13,1.71
18:27:13.080,21765,-0.75,-1.21,-0.01,1.42
18:27:13.090,21775,-0.87,-0.74,0.19,1.16
18:27:13.100,21785,-0.72,-0.55,0.04,0.91
18:27:13.116,21795,-0.85,-0.28,-0.16,0.91
18:27:13.121,21805,-0.70,-0.65,-0.04,0.96
18:27:13.130,21815,-0.60,-1.16,-0.23,1.33
18:27:13.140,21825,-0.50,-1.40,-0.49,1.57
18:27:13.154,21835,-0.44,-1.35,-0.67,1.57
18:27:13.163,21845,-0.60,-0.99,-0.60,1.31
18:27:13.173,21855,-0.72,-0.72,-0.15,1.03
18:27:13.180,21865,-0.85,-0.55,-0.01,1.01
18:27:13.194,21875,-0.96,-0.50,0.09,1.08
18:27:13.204,21885,-0.96,-0.51,0.10,1.09
18:27:13.214,21895,-0.87,-0.65,0.00,1.08
18:27:13.224,21905,-0.81,-0.77,-0.16,1.13
18:27:13.233,21915,-0.74,-0.84,-0.23,1.14
18:27:13.240,21925,-0.76,-0.79,-0.26,1.12
18:27:13.255,21935,-0.80,-0.72,-0.18,1.09
18:27:13.260,21945,-0.77,-0.65,-0.11,1.02
18:27:13.272,21955,-0.87,-0.67,-0.18,1.11
18:27:13.282,21965,-0.86,-0.66,-0.19,1.10
18:27:13.292,21975,-0.91,-0.56,-0.16,1.08
18:27:13.302,21985,-0.88,-0.53,-0.17,1.04
18:27:13.311,21995,-0.82,-0.65,-0.22,1.07
18:27:13.324,22005,-0.81,-0.60,-0.11,1.01
18:27:13.334,22015,-0.85,-0.77,-0.13,1.16
18:27:13.344,22025,-0.92,-0.61,-0.12,1.11
18:27:13.355,22035,-0.93,-0.67,-0.41,1.21
18:27:13.379,22045,-0.75,-0.68,-0.21,1.04
18:27:13.391,22055,-0.77,-0.68,-0.08,1.03
18:27:13.392,22065,-0.75,-0.73,-0.05,1.04
18:27:13.393,22075,-0.74,-0.76,-0.04,1.06
18:27:13.436,22085,-0.73,-0.75,0.01,1.05
18:27:13.436,22095,-0.75,-0.75,0.00,1.06
18:27:13.436,22105,-0.75,-0.76,-0.01,1.07
18:27:13.438,22115,-0.75,-0.75,-0.03,1.06
18:27:13.478,22125,-0.75,-0.74,-0.05,1.06
18:27:13.478,22135,-0.77,-0.76,-0.09,1.08
18:27:13.515,22145,-0.78,-0.78,-0.13,1.12
18:27:13.516,22155,-0.77,-0.76,-0.12,1.09
18:27:13.516,22165,-0.80,-0.69,-0.11,1.07
18:27:13.518,22175,-0.85,-0.68,-0.09,1.09
18:27:13.519,22185,-0.84,-0.73,-0.06,1.12
18:27:13.520,22195,-0.81,-0.75,-0.07,1.11
18:27:13.521,22205,-0.78,-0.76,-0.04,1.09
18:27:13.556,22215,-0.79,-0.75,-0.04,1.09
18:27:13.558,22225,-0.77,-0.74,-0.04,1.07
18:27:13.559,22235,-0.79,-0.80,0.02,1.12
18:27:13.560,22245,-0.80,-0.79,0.05,1.13
18:27:13.598,22255,-0.81,-0.70,-0.03,1.08
18:27:13.599,22265,-0.80,-0.72,-0.02,1.08
18:27:13.600,22275,-0.82,-0.67,-0.08,1.07
18:27:13.602,22285,-0.62,-0.94,0.20,1.14
18:27:13.632,22295,-0.84,-1.07,-0.14,1.37
18:27:13.632,22305,-0.92,-1.02,-0.21,1.39
18:27:13.634,22315,-1.06,-0.77,-0.05,1.31
18:27:13.641,22325,-1.08,-0.68,-0.10,1.28
18:27:13.650,22335,-1.19,-0.57,-0.16,1.33
18:27:13.663,22345,-1.39,-0.47,-0.16,1.48
18:27:13.674,22355,-1.58,-0.41,-0.13,1.64
18:27:13.680,22365,-1.70,-0.39,-0.05,1.74
18:27:13.690,22375,-1.61,-0.39,-0.00,1.66
18:27:13.704,22385,-1.36,-0.56,-0.14,1.48
18:27:13.714,22395,-1.04,-0.74,-0.51,1.38
18:27:13.720,22405,-0.83,-0.92,-0.57,1.37
18:27:13.735,22415,-0.62,-1.14,-0.18,1.31
18:27:13.740,22425,-0.44,-1.42,0.14,1.49
18:27:13.750,22435,-0.38,-1.64,0.27,1.70
18:27:13.761,22445,-0.30,-1.97,0.00,1.99
18:27:13.777,22455,-0.15,-2.00,-0.25,2.03
18:27:13.780,22465,0.03,-2.00,-0.71,2.13
18:27:13.795,22475,0.22,-1.80,-0.58,1.90
18:27:13.800,22485,0.56,-1.54,0.37,1.68
18:27:13.814,22495,0.26,-1.22,0.03,1.25
18:27:13.824,22505,0.09,-1.00,0.44,1.10
18:27:13.830,22515,-0.37,-0.64,0.68,1.01
18:27:13.848,22525,-0.53,-0.49,0.67,0.99
18:27:13.850,22535,-0.45,-0.53,0.63,0.94
18:27:13.861,22545,-0.18,-0.66,0.38,0.78
18:27:13.874,22555,-0.09,-0.82,0.30,0.87
18:27:13.882,22565,0.04,-0.92,0.25,0.95
18:27:13.890,22575,0.13,-0.92,0.28,0.97
18:27:13.904,22585,0.06,-0.82,0.14,0.83
18:27:13.910,22595,0.00,-0.80,0.13,0.81
18:27:13.925,22605,0.03,-0.87,0.16,0.88
18:27:13.930,22615,0.10,-1.02,0.16,1.04
18:27:13.940,22625,0.20,-1.15,0.09,1.17
18:27:13.950,22635,0.32,-1.29,0.09,1.33
18:27:13.967,22645,0.38,-1.31,0.10,1.37
18:27:13.975,22655,0.28,-1.15,0.09,1.19
18:27:13.980,22665,0.18,-1.01,0.21,1.05
18:27:13.990,22675,0.09,-0.92,0.34,0.99
18:27:14.006,22685,-0.07,-0.81,0.50,0.95
18:27:14.029,22695,-0.22,-0.71,0.56,0.93
18:27:14.030,22705,-0.32,-0.64,0.61,0.94
18:27:14.031,22715,-0.36,-0.66,0.56,0.94
18:27:14.047,22725,-0.38,-0.75,0.49,0.97
18:27:14.050,22735,-0.34,-0.95,0.39,1.08
18:27:14.061,22745,-0.25,-1.13,0.28,1.19
18:27:14.070,22755,-0.16,-1.26,0.10,1.27
18:27:14.081,22765,-0.13,-1.21,0.07,1.22
18:27:14.099,22775,-0.26,-1.09,0.13,1.13
18:27:14.101,22785,-0.41,-1.00,0.23,1.10
18:27:14.112,22795,-0.55,-0.91,0.38,1.13
18:27:14.122,22805,-0.63,-0.53,0.29,0.87
18:27:14.173,22815,-0.78,-0.50,0.01,0.93
18:27:14.174,22825,-0.63,-0.38,0.13,0.75
18:27:14.175,22835,-0.64,-0.39,0.17,0.77
18:27:14.214,22845,-0.86,-0.75,0.06,1.14
18:27:14.215,22855,-0.72,-0.91,-0.27,1.19
18:27:14.216,22865,-0.53,-0.72,-0.51,1.03
18:27:14.218,22875,-0.50,-0.35,-0.64,0.89
18:27:14.257,22885,-0.60,-0.19,-0.58,0.85
18:27:14.258,22895,-0.73,-0.16,-0.38,0.84
18:27:14.259,22905,-0.76,-0.28,-0.28,0.85
18:27:14.298,22915,-0.63,-0.36,-0.17,0.75
18:27:14.299,22925,-0.56,-0.41,-0.15,0.71
18:27:14.300,22935,-0.53,-0.49,-0.04,0.72
18:27:14.340,22945,-0.71,-0.60,-0.03,0.93
18:27:14.340,22955,-1.77,-0.72,-0.43,1.96
18:27:14.340,22965,-2.13,-1.12,0.02,2.40
18:27:14.340,22975,-1.67,-1.11,0.43,2.05
18:27:14.340,22985,-0.76,-0.63,0.42,1.07
18:27:14.342,22995,-0.65,-0.23,0.27,0.74
18:27:14.343,23005,-0.45,-0.09,0.34,0.57
18:27:14.344,23015,-0.55,-0.37,0.87,1.10
18:27:14.346,23025,-0.43,-0.57,0.79,1.07
18:27:14.355,23035,-0.45,-1.14,0.59,1.36
18:27:14.366,23045,-0.45,-1.55,0.38,1.65
18:27:14.371,23055,-0.59,-1.63,0.17,1.74
18:27:14.381,23065,-0.81,-1.15,0.08,1.41
18:27:14.396,23075,-0.87,-0.60,0.43,1.14
18:27:14.401,23085,-0.97,-0.26,0.28,1.05
18:27:14.417,23095,-0.87,-0.20,0.33,0.95
18:27:14.420,23105,-0.76,-0.61,0.04,0.98
18:27:14.435,23115,-0.60,-0.97,-0.01,1.14
18:27:14.441,23125,-0.51,-1.31,-0.38,1.45
18:27:14.455,23135,-0.37,-1.36,-0.53,1.50
18:27:14.460,23145,-0.54,-1.11,-0.84,1.50
18:27:14.472,23155,-0.68,-0.74,-0.19,1.02
18:27:14.487,23165,-0.81,-0.63,-0.08,1.03
18:27:14.491,23175,-0.86,-0.61,0.06,1.06
18:27:14.500,23185,-0.86,-0.65,0.06,1.08
18:27:14.510,23195,-0.80,-0.80,-0.08,1.13
18:27:14.524,23205,-0.77,-0.80,-0.17,1.12
18:27:14.530,23215,-0.76,-0.75,-0.13,1.07
18:27:14.541,23225,-0.79,-0.70,-0.08,1.06
18:27:14.558,23235,-0.80,-0.69,-0.04,1.05
18:27:14.560,23245,-0.84,-0.67,0.02,1.08
18:27:14.571,23255,-0.86,-0.64,0.03,1.07
18:27:14.580,23265,-0.83,-0.64,-0.01,1.05
18:27:14.598,23275,-0.80,-0.69,-0.09,1.06
18:27:14.600,23285,-0.78,-0.72,-0.13,1.07
18:27:14.618,23295,-0.79,-0.70,-0.18,1.07
18:27:14.621,23305,-0.82,-0.65,-0.18,1.06
18:27:14.630,23315,-0.79,-0.66,-0.10,1.03
18:27:14.640,23325,-0.77,-0.71,-0.03,1.05
18:27:14.650,23335,-0.72,-0.75,-0.01,1.04
18:27:14.661,23345,-0.66,-0.69,-0.04,0.95
18:27:14.690,23355,-0.74,-0.72,-0.11,1.04
18:27:14.703,23365,-0.73,-0.70,-0.16,1.03
18:27:14.704,23375,-0.83,-0.75,-0.05,1.12
18:27:14.705,23385,-0.70,-0.71,0.01,1.00
18:27:14.713,23395,-0.74,-0.73,-0.04,1.04
18:27:14.722,23405,-0.65,-0.64,0.03,0.91
18:27:14.730,23415,-0.75,-0.61,0.10,0.97
18:27:14.740,23425,-0.88,-0.70,0.02,1.13
18:27:14.753,23435,-0.81,-0.72,0.02,1.08
18:27:14.763,23445,-0.76,-0.73,0.05,1.06
18:27:14.771,23455,-0.82,-0.75,-0.05,1.11
18:27:14.780,23465,-0.86,-0.71,-0.08,1.12
18:27:14.792,23475,-0.84,-0.71,-0.16,1.11
18:27:14.803,23485,-0.83,-0.67,-0.17,1.08
18:27:14.814,23495,-0.85,-0.66,-0.21,1.10
18:27:14.823,23505,-0.85,-0.67,-0.20,1.10
18:27:14.831,23515,-0.84,-0.68,-0.16,1.09
18:27:14.848,23525,-0.80,-0.64,-0.14,1.03
18:27:14.850,23535,-0.75,-0.61,-0.10,0.97
18:27:14.889,23545,-0.76,-0.67,-0.05,1.02
18:27:14.890,23555,-0.72,-0.71,0.13,1.02
18:27:14.891,23565,-0.75,-0.78,0.08,1.08
18:27:14.893,23575,-0.76,-0.75,0.08,1.07
18:27:14.930,23585,-0.77,-0.72,0.06,1.06
18:27:14.931,23595,-0.84,-0.79,-0.02,1.15
18:27:14.933,23605,-0.84,-0.93,-0.13,1.26
18:27:14.934,23615,-0.93,-0.91,-0.15,1.31
18:27:14.971,23625,-1.07,-0.76,-0.11,1.32
18:27:14.973,23635,-1.15,-0.67,-0.18,1.35
18:27:14.975,23645,-1.17,-0.58,-0.15,1.31
18:27:14.976,23655,-1.19,-0.65,-0.24,1.37
18:27:15.015,23665,-1.41,-0.73,-0.27,1.61
18:27:15.015,23675,-1.51,-0.75,-0.16,1.69
18:27:15.016,23685,-1.46,-0.68,-0.11,1.62
18:27:15.017,23695,-1.26,-0.65,-0.23,1.44
18:27:15.020,23705,-1.01,-0.70,-0.35,1.28
18:27:15.056,23715,-0.76,-0.83,-0.33,1.17
18:27:15.057,23725,-0.56,-1.10,-0.12,1.24
18:27:15.057,23735,-0.41,-1.44,0.20,1.51
18:27:15.061,23745,-0.30,-1.69,0.20,1.73
18:27:15.081,23755,-0.26,-1.96,0.15,1.99
18:27:15.083,23765,-0.15,-2.00,-0.20,2.02
18:27:15.092,23775,0.08,-1.95,-0.38,1.99
18:27:15.102,23785,0.34,-1.65,-0.07,1.69
18:27:15.113,23795,0.09,-1.41,0.48,1.49
18:27:15.123,23805,0.20,-1.08,0.70,1.30
18:27:15.133,23815,-0.27,-0.76,0.49,0.95
18:27:15.143,23825,-0.47,-0.70,0.53,1.00
18:27:15.150,23835,-0.42,-0.64,0.63,0.99
18:27:15.161,23845,-0.27,-0.64,0.47,0.84
18:27:15.174,23855,-0.14,-0.85,0.22,0.89
18:27:15.183,23865,-0.05,-0.97,0.23,1.00
18:27:15.193,23875,0.02,-0.92,0.29,0.97
18:27:15.205,23885,0.02,-0.79,0.29,0.84
18:27:15.211,23895,0.03,-0.72,0.24,0.76
18:27:15.222,23905,0.07,-0.76,0.23,0.79
18:27:15.236,23915,0.09,-0.87,0.26,0.91
18:27:15.240,23925,0.10,-0.98,0.24,1.01
18:27:15.254,23935,0.12,-1.05,0.18,1.07
18:27:15.264,23945,0.14,-1.09,0.22,1.12
18:27:15.270,23955,0.13,-1.03,0.24,1.06
18:27:15.311,23965,0.08,-0.93,0.25,0.96
18:27:15.311,23975,0.03,-0.85,0.31,0.90
18:27:15.312,23985,-0.04,-0.80,0.37,0.88
18:27:15.314,23995,-0.11,-0.75,0.46,0.89
18:27:15.324,24005,-0.20,-0.73,0.52,0.92
18:27:15.330,24015,-0.27,-0.74,0.54,0.96
18:27:15.342,24025,-0.34,-0.79,0.52,1.01
18:27:15.350,24035,-0.34,-0.88,0.46,1.05
18:27:15.362,24045,-0.30,-1.00,0.36,1.10
18:27:15.371,24055,-0.26,-1.11,0.21,1.17
18:27:15.382,24065,-0.24,-1.17,0.08,1.20
18:27:15.390,24075,-0.26,-1.15,0.06,1.18
18:27:15.401,24085,-0.38,-1.07,0.16,1.15
18:27:15.414,24095,-0.48,-0.99,0.26,1.13
18:27:15.420,24105,-0.50,-0.82,0.31,1.01
18:27:15.434,24115,-0.75,-0.58,0.12,0.95
18:27:15.440,24125,-0.75,-0.49,0.14,0.90
18:27:15.456,24135,-0.65,-0.47,0.27,0.85
18:27:15.461,24145,-0.78,-0.54,0.25,0.98
18:27:15.471,24155,-0.95,-0.68,0.01,1.17
18:27:15.483,24165,-0.81,-0.56,-0.42,1.07
18:27:15.490,24175,-0.62,-0.40,-0.49,0.89
18:27:15.501,24185,-0.56,-0.18,-0.54,0.80
18:27:15.518,24195,-0.64,-0.07,-0.63,0.90
18:27:15.520,24205,-0.64,-0.26,-0.90,1.14
18:27:15.531,24215,-0.41,-0.57,-1.01,1.23
18:27:15.543,24225,-0.58,-0.46,-0.60,0.95
18:27:15.554,24235,-0.51,-0.54,-0.26,0.78
18:27:15.560,24245,-0.51,-0.54,-0.12,0.75
18:27:15.582,24255,-0.49,-0.62,0.08,0.79
18:27:15.584,24265,-0.50,-0.67,0.24,0.87
18:27:15.599,24275,-1.15,-0.74,0.11,1.37
18:27:15.600,24285,-2.13,-1.20,-0.16,2.45
18:27:15.615,24295,-2.13,-0.57,0.53,2.26
18:27:15.620,24305,-0.96,-0.89,0.56,1.42
18:27:15.638,24315,-0.52,-0.26,0.31,0.66
18:27:15.640,24325,-0.46,-0.03,0.16,0.48
18:27:15.656,24335,-0.54,-0.28,0.38,0.72
18:27:15.660,24345,-0.57,-0.47,0.90,1.17
18:27:15.715,24355,-0.44,-0.94,0.70,1.25
18:27:15.715,24365,-0.39,-1.39,0.74,1.62
18:27:15.716,24375,-0.89,-1.54,0.31,1.81
18:27:15.718,24385,-0.88,-1.60,-0.06,1.83
18:27:15.719,24395,-0.80,-0.85,0.04,1.17
18:27:15.720,24405,-0.54,-0.53,0.11,0.76
18:27:15.747,24415,-0.50,-0.48,-0.12,0.70
18:27:15.748,24425,-0.77,-0.76,-0.02,1.08
18:27:15.750,24435,-0.56,-1.37,-0.25,1.50
18:27:15.788,24445,-0.52,-1.44,-0.57,1.63
18:27:15.789,24455,-0.47,-1.31,-0.74,1.58
18:27:15.791,24465,-0.65,-0.95,-0.66,1.33
18:27:15.791,24475,-0.70,-0.73,-0.24,1.04
18:27:15.830,24485,-0.76,-0.63,-0.05,0.99
18:27:15.832,24495,-0.81,-0.61,0.01,1.01
18:27:15.833,24505,-0.95,-0.52,0.23,1.10
18:27:15.833,24515,-0.90,-0.60,0.17,1.09
18:27:15.871,24525,-0.74,-0.85,-0.04,1.13
18:27:15.871,24535,-0.73,-0.86,-0.18,1.14
18:27:15.873,24545,-0.72,-0.89,-0.23,1.16
18:27:15.875,24555,-0.71,-0.80,-0.16,1.08
18:27:15.900,24565,-0.72,-0.81,-0.14,1.10
18:27:15.901,24575,-0.76,-0.72,-0.04,1.04
18:27:15.902,24585,-0.80,-0.70,-0.12,1.07
18:27:15.916,24595,-0.73,-0.69,-0.03,1.01
18:27:15.927,24605,-0.77,-0.64,-0.07,1.00
18:27:15.930,24615,-0.78,-0.57,0.01,0.96
18:27:15.943,24625,-0.90,-0.45,-0.10,1.02
18:27:15.950,24635,-0.73,-0.49,0.05,0.88
18:27:15.965,24645,-0.78,-0.69,-0.03,1.04
18:27:15.971,24655,-0.73,-0.73,-0.03,1.04
18:27:16.015,24665,-0.70,-0.75,0.02,1.03
18:27:16.016,24675,-0.72,-0.74,-0.02,1.04
18:27:16.017,24685,-0.74,-0.71,0.00,1.03
18:27:16.017,24695,-0.71,-0.72,0.06,1.01
18:27:16.034,24705,-0.70,-0.74,0.05,1.02
18:27:16.036,24715,-0.70,-0.75,0.06,1.03
18:27:16.044,24725,-0.71,-0.77,0.02,1.05
18:27:16.051,24735,-0.78,-0.74,-0.00,1.08
18:27:16.060,24745,-0.78,-0.70,-0.03,1.05
18:27:16.071,24755,-0.77,-0.66,-0.03,1.02
18:27:16.086,24765,-0.76,-0.65,0.02,1.00
18:27:16.091,24775,-0.76,-0.65,0.06,1.00
18:27:16.102,24785,-0.79,-0.68,0.04,1.04
18:27:16.111,24795,-0.83,-0.81,-0.08,1.17
18:27:16.121,24805,-0.82,-0.90,-0.22,1.24
18:27:16.134,24815,-0.82,-0.85,-0.20,1.20
18:27:16.141,24825,-0.81,-0.76,-0.14,1.12
18:27:16.159,24835,-0.84,-0.76,-0.12,1.14
18:27:16.160,24845,-0.86,-0.71,-0.13,1.13
18:27:16.170,24855,-0.76,-0.67,-0.13,1.03
18:27:16.181,24865,-0.70,-0.63,-0.04,0.94
18:27:16.201,24875,-0.74,-0.74,-0.07,1.05
18:27:16.201,24885,-0.79,-0.75,-0.08,1.09
18:27:16.211,24895,-0.80,-0.76,-0.10,1.10
18:27:16.221,24905,-0.81,-0.76,-0.12,1.12
18:27:16.231,24915,-0.85,-0.86,-0.25,1.23
18:27:16.244,24925,-0.90,-0.99,-0.30,1.37
18:27:16.255,24935,-1.07,-0.90,-0.24,1.42
18:27:16.264,24945,-1.10,-0.72,-0.11,1.32
18:27:16.273,24955,-1.09,-0.60,-0.05,1.24
18:27:16.284,24965,-1.28,-0.53,-0.06,1.39
18:27:16.294,24975,-1.48,-0.46,-0.05,1.55
18:27:16.303,24985,-1.77,-0.23,0.06,1.78
18:27:16.313,24995,-1.70,-0.41,0.05,1.75
18:27:16.320,25005,-1.41,-0.53,-0.12,1.51
18:27:16.332,25015,-1.14,-0.69,-0.34,1.38
18:27:16.342,25025,-0.86,-0.87,-0.51,1.32
18:27:16.357,25035,-0.59,-1.12,-0.32,1.30
18:27:16.360,25045,-0.38,-1.38,-0.02,1.43
18:27:16.417,25055,-0.30,-1.65,0.12,1.68
18:27:16.419,25065,-0.19,-1.90,0.08,1.92
18:27:16.419,25075,-0.15,-2.00,-0.22,2.02
18:27:16.420,25085,-0.04,-2.00,-0.68,2.12
18:27:16.422,25095,0.12,-1.90,-0.67,2.02
18:27:16.423,25105,0.25,-1.39,-0.28,1.44
18:27:16.459,25115,0.29,-2.00,1.30,2.40
18:27:16.459,25125,0.37,-0.83,0.87,1.26
18:27:16.462,25135,-0.16,-0.61,0.73,0.97
18:27:16.463,25145,-0.35,-0.48,0.79,0.99
18:27:16.500,25155,-0.44,-0.37,0.77,0.96
18:27:16.500,25165,-0.34,-0.52,0.59,0.85
18:27:16.502,25175,-0.12,-0.60,0.42,0.74
18:27:16.503,25185,-0.00,-0.76,0.40,0.86
18:27:16.541,25195,0.10,-0.94,0.46,1.05
18:27:16.542,25205,0.27,-0.85,0.33,0.95
18:27:16.543,25215,0.15,-0.75,0.25,0.81
18:27:16.544,25225,0.01,-0.72,0.18,0.74
18:27:16.579,25235,0.02,-0.69,0.25,0.74
18:27:16.580,25245,0.09,-0.84,0.27,0.89
18:27:16.581,25255,0.18,-0.99,0.24,1.04
18:27:16.583,25265,0.28,-1.15,0.22,1.20
18:27:16.619,25275,0.30,-1.17,0.19,1.22
18:27:16.620,25285,0.25,-1.09,0.12,1.13
18:27:16.621,25295,0.17,-0.98,0.21,1.02
18:27:16.622,25305,0.02,-0.87,0.36,0.94
18:27:16.633,25315,-0.13,-0.79,0.47,0.93
18:27:16.643,25325,-0.27,-0.69,0.59,0.94
18:27:16.652,25335,-0.34,-0.67,0.62,0.98
18:27:16.664,25345,-0.38,-0.69,0.60,0.99
18:27:16.670,25355,-0.44,-0.77,0.59,1.06
18:27:16.684,25365,-0.42,-0.91,0.41,1.08
18:27:16.698,25375,-0.40,-1.03,0.20,1.12
18:27:16.701,25385,-0.37,-1.12,0.07,1.18
18:27:16.714,25395,-0.35,-1.13,0.05,1.18
18:27:16.720,25405,-0.41,-1.19,0.03,1.26
18:27:16.731,25415,-0.54,-1.06,0.15,1.20
18:27:16.746,25425,-0.61,-0.69,0.12,0.93
18:27:16.753,25435,-0.84,-0.61,0.11,1.05
18:27:16.760,25445,-0.61,-0.50,0.16,0.80
18:27:16.775,25455,-0.88,-0.42,0.14,0.99
18:27:16.780,25465,-0.97,-0.66,-0.27,1.20
18:27:16.790,25475,-0.83,-0.74,-0.05,1.11
18:27:16.801,25485,-0.69,-0.31,-0.42,0.87
18:27:16.810,25495,-0.67,-0.11,-0.38,0.78
18:27:16.824,25505,-0.78,0.08,-0.50,0.93
18:27:16.831,25515,-0.50,-0.20,-0.71,0.89
18:27:16.843,25525,-0.71,-0.30,-0.68,1.03
18:27:16.853,25535,-0.49,-0.68,-0.55,1.01
18:27:16.864,25545,-0.51,-0.71,-0.30,0.93
18:27:16.902,25555,-0.53,-0.64,-0.08,0.83
18:27:16.916,25565,-0.57,-0.60,0.03,0.83
18:27:16.917,25575,-0.58,-0.69,0.17,0.92
18:27:16.918,25585,-1.55,-0.67,-0.03,1.69
18:27:16.936,25595,-2.13,-1.08,-0.10,2.38
18:27:16.938,25605,-2.13,-0.80,0.43,2.31
18:27:16.939,25615,-0.89,-0.89,0.50,1.36
18:27:16.940,25625,-0.52,-0.29,0.17,0.62
18:27:16.956,25635,-0.48,-0.16,-0.00,0.50
18:27:16.960,25645,-0.46,-0.29,0.33,0.64
18:27:16.972,25655,-0.39,-0.82,0.67,1.13
18:27:16.982,25665,-0.34,-1.24,0.72,1.47
18:27:16.990,25675,-0.44,-1.58,0.61,1.75
18:27:17.008,25685,-0.66,-2.00,0.16,2.12
18:27:17.010,25695,-0.85,-1.22,0.12,1.49
18:27:17.024,25705,-0.83,-0.59,0.38,1.09
18:27:17.033,25715,-0.60,-0.37,0.08,0.71
18:27:17.044,25725,-0.72,-0.41,-0.20,0.85
18:27:17.051,25735,-0.87,-0.62,-0.34,1.13
18:27:17.067,25745,-0.52,-1.30,-0.31,1.43
18:27:17.078,25755,-0.50,-1.40,-0.64,1.62
18:27:17.080,25765,-0.31,-1.42,-0.96,1.74
18:27:17.090,25775,-0.42,-1.14,-0.85,1.48
18:27:17.100,25785,-0.69,-0.79,-0.28,1.09
18:27:17.111,25795,-0.82,-0.54,-0.02,0.98
18:27:17.163,25805,-0.96,-0.43,0.18,1.07
18:27:17.164,25815,-1.04,-0.42,0.25,1.15
18:27:17.165,25825,-0.94,-0.56,0.22,1.12
18:27:17.167,25835,-0.79,-0.82,-0.09,1.14
18:27:17.168,25845,-0.68,-0.94,-0.27,1.19
18:27:17.204,25855,-0.65,-0.97,-0.34,1.22
18:27:17.205,25865,-0.79,-0.81,-0.30,1.17
18:27:17.207,25875,-0.81,-0.67,-0.16,1.06
18:27:17.207,25885,-0.86,-0.75,-0.17,1.15
18:27:17.210,25895,-0.93,-0.53,-0.10,1.07
18:27:17.245,25905,-0.81,-0.58,-0.02,1.00
18:27:17.246,25915,-0.77,-0.68,-0.26,1.06
18:27:17.248,25925,-0.75,-0.65,-0.17,1.01
18:27:17.251,25935,-0.73,-0.80,-0.22,1.11
18:27:17.287,25945,-0.71,-0.73,-0.14,1.03
18:27:17.287,25955,-0.71,-0.80,-0.12,1.07
18:27:17.293,25965,-0.73,-0.73,-0.08,1.04
18:27:17.344,25975,-0.77,-0.72,-0.01,1.06
18:27:17.345,25985,-0.79,-0.59,0.04,0.99
18:27:17.347,25995,-0.75,-0.72,-0.01,1.04
18:27:17.366,26005,-0.74,-0.73,-0.00,1.04
18:27:17.368,26015,-0.72,-0.71,0.03,1.01
18:27:17.368,26025,-0.73,-0.74,-0.02,1.04
18:27:17.386,26035,-0.72,-0.75,-0.10,1.04
18:27:17.388,26045,-0.73,-0.74,-0.08,1.05
18:27:17.388,26055,-0.74,-0.75,-0.08,1.06
18:27:17.389,26065,-0.79,-0.76,-0.04,1.10
18:27:17.390,26075,-0.76,-0.81,-0.04,1.11
18:27:17.400,26085,-0.70,-0.77,-0.08,1.04
18:27:17.414,26095,-0.67,-0.75,-0.02,1.01
18:27:17.420,26105,-0.71,-0.78,0.02,1.05
18:27:17.431,26115,-0.74,-0.81,0.04,1.09
18:27:17.442,26125,-0.75,-0.80,0.04,1.09
18:27:17.452,26135,-0.74,-0.79,0.03,1.08
18:27:17.461,26145,-0.76,-0.76,-0.02,1.07
18:27:17.472,26155,-0.76,-0.76,-0.05,1.07
18:27:17.480,26165,-0.71,-0.75,-0.04,1.03
18:27:17.490,26175,-0.66,-0.79,-0.10,1.04
18:27:17.505,26185,-0.75,-0.75,-0.18,1.08
18:27:17.510,26195,-0.70,-0.72,-0.10,1.00
18:27:17.523,26205,-0.72,-0.72,-0.05,1.02
18:27:17.532,26215,-0.49,-0.49,-0.33,0.76
18:27:17.541,26225,-0.74,-0.80,0.03,1.09
18:27:17.556,26235,-0.75,-0.89,-0.08,1.16
18:27:17.561,26245,-0.79,-0.98,-0.06,1.26
18:27:17.573,26255,-0.94,-0.93,-0.06,1.32
18:27:17.582,26265,-0.95,-0.81,-0.01,1.25
18:27:17.591,26275,-1.05,-0.68,-0.11,1.26
18:27:17.601,26285,-1.16,-0.61,-0.20,1.32
18:27:17.611,26295,-1.27,-0.60,-0.23,1.42
18:27:17.621,26305,-1.39,-0.62,-0.26,1.54
18:27:17.630,26315,-1.48,-0.62,-0.21,1.62
18:27:17.641,26325,-1.49,-0.59,-0.16,1.61
18:27:17.652,26335,-1.34,-0.60,-0.19,1.48
18:27:17.661,26345,-1.12,-0.66,-0.30,1.33
18:27:17.671,26355,-0.92,-0.80,-0.43,1.29
18:27:17.686,26365,-0.63,-1.06,-0.11,1.24
18:27:17.690,26375,-0.44,-1.27,0.04,1.34
18:27:17.700,26385,-0.29,-1.56,0.13,1.60
18:27:17.710,26395,-0.19,-1.80,0.16,1.82
18:27:17.721,26405,-0.12,-1.99,-0.05,2.00
18:27:17.733,26415,-0.08,-2.00,-0.41,2.05
18:27:17.744,26425,0.08,-1.86,-0.56,1.95
18:27:17.753,26435,0.49,-1.51,-0.27,1.61
18:27:17.761,26445,0.14,-0.44,-0.17,0.49
18:27:17.804,26455,0.40,-1.55,0.50,1.67
18:27:17.805,26465,-0.13,-0.36,0.02,0.39
18:27:17.807,26475,-0.54,-0.51,0.65,0.98
18:27:17.808,26485,-0.52,-0.52,0.66,0.99
18:27:17.810,26495,-0.31,-0.67,0.70,1.02
18:27:17.846,26505,-0.19,-0.71,0.47,0.87
18:27:17.846,26515,-0.01,-0.75,0.39,0.85
18:27:17.849,26525,0.07,-0.69,0.31,0.76
18:27:17.850,26535,0.11,-0.70,0.24,0.74
18:27:17.879,26545,0.16,-0.79,0.18,0.82
18:27:17.880,26555,0.15,-0.84,0.23,0.88
18:27:17.881,26565,0.15,-0.90,0.24,0.95
18:27:17.913,26575,0.16,-1.03,0.16,1.05
18:27:17.914,26585,0.26,-1.09,0.20,1.14
18:27:17.915,26595,0.30,-1.16,0.15,1.21
18:27:17.954,26605,0.28,-1.10,0.12,1.14
18:27:17.955,26615,0.20,-0.98,0.23,1.02
18:27:17.957,26625,0.10,-0.86,0.35,0.93
18:27:17.958,26635,0.02,-0.81,0.42,0.91
18:27:17.960,26645,-0.04,-0.68,0.50,0.85
18:27:17.995,26655,-0.24,-0.75,0.53,0.95
18:27:17.996,26665,-0.27,-0.76,0.54,0.97
18:27:17.998,26675,-0.30,-0.87,0.51,1.05
18:27:18.000,26685,-0.25,-0.98,0.45,1.11
18:27:18.033,26695,-0.20,-1.05,0.30,1.11
18:27:18.034,26705,-0.19,-1.10,0.11,1.12
18:27:18.035,26715,-0.28,-1.12,0.13,1.16
18:27:18.041,26725,-0.38,-1.06,0.21,1.14
18:27:18.053,26735,-0.52,-1.03,0.23,1.17
18:27:18.063,26745,-0.59,-0.98,0.34,1.19
18:27:18.072,26755,-0.75,-0.60,0.14,0.97
18:27:18.082,26765,-0.75,-0.56,0.04,0.94
18:27:18.098,26775,-0.58,-0.47,0.15,0.76
18:27:18.100,26785,-0.79,-0.40,0.23,0.92
18:27:18.110,26795,-0.92,-0.65,0.00,1.13
18:27:18.121,26805,-0.84,-0.91,-0.72,1.43
18:27:18.134,26815,-0.52,-0.52,-0.53,0.91
18:27:18.141,26825,-0.50,-0.27,-0.70,0.90
18:27:18.152,26835,-0.57,-0.23,-0.63,0.88
18:27:18.161,26845,-0.57,-0.35,-0.75,1.00
18:27:18.173,26855,-0.63,-0.50,-0.51,0.95
18:27:18.184,26865,-0.62,-0.51,-0.37,0.89
18:27:18.201,26875,-0.57,-0.54,-0.20,0.81
18:27:18.201,26885,-0.57,-0.55,-0.09,0.79
18:27:18.218,26895,-0.56,-0.58,0.00,0.81
18:27:18.220,26905,-0.61,-0.69,0.06,0.92
18:27:18.235,26915,-1.02,-0.79,-0.05,1.29
18:27:18.240,26925,-2.13,-1.06,-0.25,2.39
18:27:18.250,26935,-2.13,-0.85,0.21,2.30
18:27:18.260,26945,-1.33,-0.96,0.56,1.74
18:27:18.272,26955,-0.44,-0.50,0.28,0.73
18:27:18.283,26965,-0.42,-0.09,-0.10,0.44
18:27:18.292,26975,-0.45,-0.28,0.04,0.53
18:27:18.302,26985,-0.53,-0.55,0.32,0.83
18:27:18.313,26995,-0.60,-0.94,0.38,1.18
18:27:18.323,27005,-0.55,-1.42,0.41,1.57
18:27:18.333,27015,-0.61,-1.54,0.25,1.67
18:27:18.340,27025,-0.78,-1.17,0.06,1.41
18:27:18.351,27035,-0.84,-0.69,0.28,1.12
18:27:18.360,27045,-0.95,-0.33,0.23,1.03
18:27:18.373,27055,-0.99,-0.24,0.02,1.01
18:27:18.384,27065,-0.77,-0.58,0.04,0.96
18:27:18.392,27075,-0.64,-0.92,-0.13,1.13
18:27:18.401,27085,-0.50,-1.24,-0.37,1.39
18:27:18.410,27095,-0.33,-1.47,-0.66,1.65
18:27:18.420,27105,-0.21,-1.49,-0.94,1.78
18:27:18.434,27115,-0.43,-1.23,-0.73,1.50
18:27:18.440,27125,-0.72,-0.76,-0.08,1.05
18:27:18.451,27135,-0.74,-0.59,0.24,0.98
18:27:18.460,27145,-0.96,-0.48,0.38,1.14
18:27:18.478,27155,-1.12,-0.38,0.44,1.26
18:27:18.481,27165,-1.06,-0.39,0.52,1.24
18:27:18.491,27175,-0.87,-0.62,0.31,1.11
18:27:18.500,27185,-0.73,-0.90,-0.00,1.16
18:27:18.512,27195,-0.60,-1.00,-0.14,1.17
18:27:18.520,27205,-0.55,-1.02,-0.28,1.19
18:27:18.530,27215,-0.63,-0.93,-0.37,1.18
18:27:18.546,27225,-0.74,-0.76,-0.30,1.10
18:27:18.550,27235,-0.80,-0.66,-0.15,1.05
18:27:18.560,27245,-0.83,-0.61,-0.17,1.05
18:27:18.612,27255,-0.83,-0.64,-0.20,1.07
18:27:18.613,27265,-0.83,-0.67,-0.22,1.09
18:27:18.615,27275,-0.76,-0.66,-0.28,1.04
18:27:18.615,27285,-0.79,-0.72,-0.24,1.09
18:27:18.617,27295,-0.75,-0.69,-0.27,1.06
18:27:18.652,27305,-0.79,-0.61,-0.14,1.00
18:27:18.653,27315,-0.92,-0.66,-0.13,1.14
18:27:18.655,27325,-0.76,-0.71,-0.18,1.06
18:27:18.656,27335,-0.74,-0.64,-0.19,1.00
18:27:18.732,27345,-0.74,-0.69,-0.12,1.02
18:27:18.733,27355,-0.74,-0.71,-0.08,1.03
18:27:18.734,27365,-0.77,-0.70,-0.05,1.04
18:27:18.737,27375,-0.75,-0.69,-0.03,1.02
18:27:18.737,27385,-0.74,-0.72,-0.04,1.04
18:27:18.737,27395,-0.74,-0.75,-0.05,1.06
18:27:18.774,27405,-0.73,-0.78,-0.07,1.07
18:27:18.775,27415,-0.74,-0.79,-0.09,1.09
18:27:18.776,27425,-0.77,-0.79,-0.10,1.11
18:27:18.777,27435,-0.78,-0.78,-0.06,1.11
18:27:18.778,27445,-0.80,-0.80,-0.01,1.14
18:27:18.778,27455,-0.78,-0.83,-0.05,1.14
18:27:18.811,27465,-0.75,-0.85,-0.06,1.14
18:27:18.812,27475,-0.71,-0.90,-0.06,1.15
18:27:18.813,27485,-0.72,-0.92,-0.12,1.17
18:27:18.815,27495,-0.75,-0.86,-0.11,1.15
18:27:18.820,27505,-0.74,-0.84,-0.10,1.13
18:27:18.830,27515,-0.73,-0.83,-0.14,1.11
18:27:18.840,27525,-0.75,-0.80,-0.10,1.10
18:27:18.850,27535,-0.77,-0.77,-0.09,1.09
18:27:18.861,27545,-0.76,-0.77,-0.06,1.08
18:27:18.877,27555,-0.76,-0.76,-0.08,1.08
18:27:18.880,27565,-0.78,-0.72,-0.09,1.07
18:27:18.898,27575,-0.84,-0.82,-0.21,1.19
18:27:18.900,27585,-0.91,-0.89,-0.25,1.30
18:27:18.912,27595,-1.09,-0.71,-0.17,1.32
18:27:18.927,27605,-1.09,-0.56,-0.12,1.24
18:27:18.931,27615,-1.11,-0.41,-0.10,1.19
18:27:18.940,27625,-1.14,-0.37,-0.04,1.20
18:27:18.951,27635,-1.35,-0.36,-0.04,1.40
18:27:18.968,27645,-1.60,-0.37,-0.07,1.65
18:27:18.971,27655,-1.75,-0.33,-0.11,1.78
18:27:18.983,27665,-1.55,-0.48,-0.16,1.63
18:27:18.996,27675,-1.14,-0.67,-0.38,1.38
18:27:19.000,27685,-0.83,-0.91,-0.58,1.36
18:27:19.010,27695,-0.52,-1.20,-0.52,1.40
18:27:19.027,27705,-0.26,-1.44,-0.17,1.47
18:27:19.031,27715,-0.12,-1.70,-0.00,1.70
18:27:19.040,27725,-0.13,-1.82,0.01,1.83
18:27:19.052,27735,-0.16,-1.92,0.00,1.93
18:27:19.065,27745,-0.15,-1.96,-0.07,1.97
18:27:19.070,27755,-0.11,-1.79,-0.12,1.80
18:27:19.086,27765,0.03,-1.56,-0.00,1.56
18:27:19.090,27775,0.08,-1.22,0.32,1.26
18:27:19.102,27785,0.08,-1.03,0.34,1.08
18:27:19.119,27795,-0.16,-0.65,0.26,0.72
18:27:19.120,27805,-0.27,-0.63,0.64,0.94
18:27:19.150,27815,-0.32,-0.62,0.68,0.98
18:27:19.151,27825,-0.13,-0.82,0.51,0.98
18:27:19.151,27835,0.01,-0.89,0.36,0.96
18:27:19.163,27845,0.12,-0.81,0.36,0.90
18:27:19.175,27855,0.17,-0.73,0.31,0.81
18:27:19.180,27865,0.15,-0.69,0.33,0.78
18:27:19.191,27875,0.18,-0.68,0.34,0.78
18:27:19.200,27885,0.16,-0.73,0.35,0.83
18:27:19.210,27895,0.16,-0.80,0.31,0.87
18:27:19.221,27905,0.18,-0.86,0.28,0.92
18:27:19.231,27915,0.24,-0.96,0.26,1.03
18:27:19.241,27925,0.26,-0.99,0.30,1.07
18:27:19.250,27935,0.31,-1.06,0.28,1.14
18:27:19.264,27945,0.22,-0.93,0.31,1.00
18:27:19.270,27955,0.10,-0.83,0.36,0.91
18:27:19.280,27965,-0.01,-0.80,0.42,0.90
18:27:19.320,27975,-0.10,-0.80,0.45,0.92
18:27:19.321,27985,-0.17,-0.80,0.52,0.97
18:27:19.322,27995,-0.24,-0.79,0.54,0.99
18:27:19.324,28005,-0.28,-0.81,0.54,1.02
18:27:19.368,28015,-0.31,-0.85,0.51,1.04
18:27:19.396,28025,-0.33,-0.92,0.44,1.07
18:27:19.403,28035,-0.30,-1.00,0.29,1.08
18:27:19.404,28045,-0.30,-1.04,0.20,1.10
18:27:19.404,28055,-0.28,-1.03,0.18,1.08
18:27:19.405,28065,-0.32,-0.98,0.22,1.05
18:27:19.429,28075,-0.42,-0.91,0.25,1.03
18:27:19.429,28085,-0.55,-0.87,0.28,1.07
18:27:19.430,28095,-0.61,-0.81,0.33,1.07
18:27:19.431,28105,-0.73,-0.58,0.17,0.95
18:27:19.432,28115,-0.74,-0.65,0.07,0.99
18:27:19.470,28125,-0.62,-0.66,0.05,0.91
18:27:19.471,28135,-0.74,-0.87,0.02,1.14
18:27:19.471,28145,-0.79,-0.94,-0.16,1.23
18:27:19.472,28155,-0.72,-0.88,-0.34,1.19
18:27:19.510,28165,-0.58,-0.61,-0.40,0.93
18:27:19.512,28175,-0.64,-0.31,-0.44,0.84
18:27:19.513,28185,-0.72,-0.19,-0.42,0.85
18:27:19.527,28195,-0.85,-0.17,-0.25,0.90
18:27:19.529,28205,-0.82,-0.19,-0.32,0.90
18:27:19.562,28215,-0.78,-0.10,-0.37,0.86
18:27:19.563,28225,-0.75,-0.25,-0.19,0.81
18:27:19.564,28235,-0.64,-0.47,-0.41,0.90
18:27:19.565,28245,-0.62,-0.58,-0.37,0.92
18:27:19.570,28255,-0.56,-0.69,-0.15,0.90
18:27:19.580,28265,-0.52,-0.84,-0.14,0.99
18:27:19.591,28275,-0.45,-0.92,-0.07,1.02
18:27:19.603,28285,-0.38,-0.95,-0.09,1.03
18:27:19.613,28295,-0.62,-0.86,0.08,1.07
18:27:19.620,28305,-1.61,-0.67,-0.09,1.75
18:27:19.631,28315,-2.13,-0.89,0.22,2.31
18:27:19.640,28325,-2.13,-0.67,0.45,2.27
18:27:19.652,28335,-1.01,-0.45,0.54,1.23
18:27:19.662,28345,-0.63,0.02,0.02,0.63
18:27:19.672,28355,-0.83,-0.15,-0.31,0.90
18:27:19.681,28365,-1.10,-0.32,-0.21,1.16
18:27:19.690,28375,-1.38,-0.63,0.45,1.58
18:27:19.700,28385,-0.69,-1.30,0.13,1.48
18:27:19.710,28395,-0.56,-1.35,-0.11,1.47
18:27:19.726,28405,-0.50,-1.14,-0.32,1.28
18:27:19.731,28415,-0.70,-0.69,-0.23,1.01
18:27:19.750,28425,-0.84,-0.48,-0.13,0.97
18:27:19.751,28435,-0.86,-0.50,-0.07,0.99
18:27:19.761,28445,-0.90,-0.56,0.07,1.06
18:27:19.770,28455,-0.74,-0.91,-0.18,1.18
18:27:19.779,28465,-0.64,-1.02,-0.49,1.30
18:27:19.793,28475,-0.58,-1.02,-0.55,1.30
18:27:19.800,28485,-0.65,-0.94,-0.53,1.26
18:27:19.811,28495,-0.76,-0.80,-0.34,1.16
18:27:19.826,28505,-0.79,-0.66,-0.12,1.03
18:27:19.831,28515,-0.93,-0.49,-0.01,1.05
18:27:19.843,28525,-0.96,-0.54,-0.01,1.10
18:27:19.854,28535,-0.96,-0.54,0.02,1.10
18:27:19.861,28545,-0.90,-0.59,0.04,1.07
18:27:19.870,28555,-0.67,-0.93,-0.11,1.15
18:27:19.881,28565,-0.53,-0.91,-0.13,1.06
18:27:19.891,28575,-0.73,-0.87,-0.14,1.14
18:27:19.903,28585,-0.75,-0.91,-0.06,1.18
18:27:19.914,28595,-0.75,-0.78,0.01,1.08
18:27:19.920,28605,-0.76,-0.71,0.07,1.04
18:27:19.933,28615,-0.75,-0.73,0.08,1.05
18:27:19.940,28625,-0.68,-0.76,0.01,1.02
18:27:19.952,28635,-0.69,-0.78,-0.03,1.05
18:27:19.968,28645,-0.65,-0.77,-0.02,1.00
18:27:19.974,28655,-0.70,-0.78,-0.04,1.05
18:27:19.998,28665,-0.73,-0.74,0.01,1.04
18:27:20.000,28675,-0.75,-0.70,-0.05,1.03
18:27:20.012,28685,-0.78,-0.71,-0.10,1.06
18:27:20.047,28695,-0.79,-0.78,-0.26,1.14
18:27:20.047,28705,-0.74,-0.75,-0.20,1.07
18:27:20.049,28715,-0.76,-0.75,-0.23,1.09
18:27:20.052,28725,-0.78,-0.73,-0.16,1.08
18:27:20.052,28735,-0.76,-0.73,-0.18,1.07
18:27:20.089,28745,-0.76,-0.74,-0.19,1.08
18:27:20.089,28755,-0.80,-0.70,-0.25,1.09
18:27:20.093,28765,-0.80,-0.70,-0.25,1.09
18:27:20.093,28775,-0.83,-0.67,-0.21,1.09
18:27:20.130,28785,-0.84,-0.63,-0.19,1.07
18:27:20.130,28795,-0.85,-0.62,-0.18,1.06
18:27:20.131,28805,-0.85,-0.66,-0.20,1.10
18:27:20.132,28815,-0.77,-0.71,-0.15,1.06
18:27:20.172,28825,-0.78,-0.69,-0.17,1.05
18:27:20.172,28835,-0.79,-0.68,-0.14,1.05
18:27:20.173,28845,-0.69,-0.78,-0.07,1.05
18:27:20.175,28855,-0.79,-0.77,-0.19,1.12
18:27:20.209,28865,-0.74,-0.78,-0.18,1.09
18:27:20.209,28875,-0.76,-0.78,-0.08,1.09
18:27:20.210,28885,-0.75,-0.80,-0.17,1.11
18:27:20.211,28895,-0.75,-0.77,-0.07,1.07
18:27:20.247,28905,-0.75,-0.72,-0.02,1.04
18:27:20.248,28915,-0.76,-0.76,-0.10,1.08
18:27:20.249,28925,-0.72,-0.81,-0.15,1.09
18:27:20.250,28935,-0.69,-0.83,-0.19,1.10
18:27:20.262,28945,-0.67,-0.84,-0.22,1.10
18:27:20.273,28955,-0.69,-0.88,-0.21,1.13
18:27:20.285,28965,-0.67,-0.91,-0.25,1.16
18:27:20.290,28975,-0.68,-0.88,-0.20,1.13
18:27:20.307,28985,-0.71,-0.77,-0.15,1.06
18:27:20.311,28995,-0.77,-0.68,-0.09,1.03
18:27:20.321,29005,-0.82,-0.63,-0.07,1.04
18:27:20.330,29015,-0.83,-0.61,-0.06,1.03
18:27:20.341,29025,-0.81,-0.67,-0.11,1.06
18:27:20.351,29035,-0.81,-0.68,-0.18,1.07
18:27:20.360,29045,-0.75,-0.73,-0.21,1.07
18:27:20.370,29055,-0.71,-0.78,-0.23,1.08
18:27:20.380,29065,-0.70,-0.82,-0.22,1.11
18:27:20.391,29075,-0.71,-0.80,-0.17,1.08
18:27:20.402,29085,-0.72,-0.76,-0.13,1.06
18:27:20.454,29095,-0.73,-0.76,-0.10,1.06
18:27:20.455,29105,-0.74,-0.77,-0.10,1.07
18:27:20.455,29115,-0.74,-0.78,-0.14,1.08
18:27:20.456,29125,-0.73,-0.78,-0.16,1.08
18:27:20.458,29135,-0.72,-0.78,-0.17,1.08
18:27:20.460,29145,-0.73,-0.76,-0.16,1.06
18:27:20.477,29155,-0.76,-0.73,-0.13,1.06
18:27:20.481,29165,-0.74,-0.74,-0.14,1.06
18:27:20.512,29175,-0.73,-0.77,-0.17,1.07
18:27:20.512,29185,-0.72,-0.77,-0.18,1.07
18:27:20.514,29195,-0.72,-0.77,-0.19,1.07
18:27:20.520,29205,-0.74,-0.75,-0.16,1.07
18:27:20.534,29215,-0.74,-0.75,-0.14,1.06
